Ax	Ay	Az	p	q	r	mx	my	mz	
0.25	0.47	-3.27	-0.10	0.01	-0.46	0.45	2.34	6.22	
0.41	0.77	-5.39	-0.17	0.02	-0.75	0.74	3.86	10.27	
0.52	0.97	-6.77	-0.21	0.02	-0.94	0.93	4.85	12.89	
0.59	1.09	-7.67	-0.23	0.03	-1.07	1.05	5.49	14.60	
0.76	0.81	-8.44	-0.31	0.11	-1.53	1.14	5.91	15.71	
0.88	0.63	-8.95	-0.36	0.16	-1.84	1.19	6.18	16.44	
0.95	0.51	-9.28	-0.39	0.20	-2.03	1.22	6.36	16.91	
1.05	0.60	-9.46	-0.40	0.20	-1.93	1.24	6.47	17.21	
1.12	0.66	-9.57	-0.41	0.20	-1.87	1.26	6.55	17.41	
1.17	0.70	-9.65	-0.42	0.20	-1.82	1.27	6.60	17.54	
1.20	0.73	-9.70	-0.42	0.20	-1.80	1.27	6.63	17.62	
1.14	0.75	-9.69	-0.36	0.15	-1.46	1.28	6.65	17.68	
1.11	0.76	-9.68	-0.32	0.12	-1.24	1.28	6.66	17.71	
1.08	0.77	-9.68	-0.30	0.10	-1.10	1.28	6.67	17.73	
1.07	0.77	-9.67	-0.28	0.09	-1.01	1.28	6.68	17.75	
1.13	0.79	-9.73	-0.24	0.08	-0.77	0.54	5.97	18.62	
1.17	0.81	-9.76	-0.21	0.08	-0.61	0.05	5.52	19.19	
1.20	0.82	-9.78	-0.19	0.08	-0.51	-0.26	5.22	19.56	
1.12	0.82	-9.77	-0.14	0.04	-0.21	-0.47	5.02	19.80	
1.06	0.82	-9.76	-0.10	0.02	-0.01	-0.60	4.90	19.95	
1.03	0.82	-9.76	-0.08	0.00	0.12	-0.69	4.82	20.06	
1.01	0.82	-9.76	-0.06	-0.01	0.20	-0.74	4.76	20.12	
1.06	0.94	-9.78	-0.01	-0.04	0.50	-0.78	4.73	20.16	
1.10	1.02	-9.79	0.03	-0.06	0.70	-0.80	4.71	20.19	
1.12	1.07	-9.80	0.05	-0.07	0.82	-0.82	4.69	20.21	
1.14	1.10	-9.80	0.07	-0.08	0.91	-0.83	4.68	20.22	
1.10	1.08	-9.76	0.11	-0.12	0.97	-0.84	4.68	20.23	
1.08	1.06	-9.73	0.14	-0.14	1.01	-0.84	4.67	20.24	
1.06	1.04	-9.71	0.16	-0.15	1.04	-0.84	4.67	20.24	
1.01	1.04	-9.68	0.18	-0.15	1.04	-0.85	4.67	20.24	
0.97	1.03	-9.66	0.19	-0.15	1.04	-0.85	4.67	20.24	
0.94	1.03	-9.65	0.20	-0.15	1.04	-0.85	4.67	20.24	
0.93	1.03	-9.64	0.20	-0.15	1.04	-0.85	4.67	20.24	
0.99	1.00	-9.66	0.19	-0.11	0.89	-0.85	4.67	20.24	
1.03	0.97	-9.67	0.18	-0.09	0.80	-0.85	4.66	20.24	
1.06	0.96	-9.68	0.17	-0.07	0.73	-0.85	4.66	20.24	
1.07	0.95	-9.69	0.17	-0.06	0.69	-0.85	4.66	20.24	
1.08	0.93	-9.70	0.11	-0.04	0.45	-0.85	4.66	20.24	
1.08	0.92	-9.71	0.08	-0.04	0.30	-0.85	4.66	20.24	
1.08	0.92	-9.72	0.06	-0.03	0.20	-0.85	4.66	20.24	
1.11	0.96	-9.73	0.02	-0.03	0.03	-0.48	5.11	19.81	
1.14	0.99	-9.73	-0.01	-0.02	-0.09	-0.23	5.39	19.53	
1.16	1.00	-9.74	-0.03	-0.02	-0.16	-0.08	5.58	19.35	
1.17	1.02	-9.74	-0.04	-0.02	-0.21	0.03	5.70	19.23	
1.15	1.06	-9.70	-0.06	-0.02	-0.35	0.09	5.78	19.15	
1.13	1.09	-9.68	-0.07	-0.02	-0.44	0.14	5.83	19.10	
1.13	1.10	-9.66	-0.07	-0.02	-0.49	0.17	5.87	19.07	
1.12	1.12	-9.65	-0.08	-0.02	-0.53	0.18	5.89	19.05	
1.07	1.00	-9.69	-0.07	-0.00	-0.68	0.20	5.90	19.04	
1.04	0.92	-9.72	-0.07	0.01	-0.77	0.20	5.91	19.03	
1.02	0.87	-9.73	-0.07	0.02	-0.84	0.21	5.92	19.02	
0.99	0.78	-9.76	-0.06	0.03	-0.82	0.21	5.92	19.02	
0.96	0.72	-9.78	-0.06	0.04	-0.81	0.21	5.92	19.01	
0.95	0.68	-9.79	-0.06	0.05	-0.80	0.21	5.93	19.01	
0.94	0.65	-9.80	-0.06	0.05	-0.80	0.22	5.93	19.01	
0.94	0.63	-9.83	-0.05	0.04	-0.68	0.22	5.93	19.01	
0.95	0.61	-9.85	-0.05	0.03	-0.61	0.22	5.93	19.01	
0.95	0.60	-9.86	-0.05	0.03	-0.56	0.22	5.93	19.01	
0.95	0.59	-9.87	-0.05	0.03	-0.53	0.22	5.93	19.01	
0.94	0.62	-9.80	-0.03	0.02	-0.35	0.22	5.93	19.01	
0.93	0.64	-9.76	-0.01	0.01	-0.23	0.22	5.93	19.01	
0.92	0.66	-9.74	-0.00	0.00	-0.15	0.22	5.93	19.01	
0.95	0.65	-9.73	0.02	0.01	0.08	0.34	6.11	18.79	
0.97	0.65	-9.72	0.04	0.01	0.23	0.42	6.22	18.65	
0.98	0.64	-9.72	0.05	0.02	0.33	0.48	6.30	18.56	
0.99	0.64	-9.71	0.06	0.02	0.39	0.51	6.34	18.50	
0.99	0.69	-9.71	0.08	0.00	0.58	0.53	6.38	18.47	
1.00	0.73	-9.71	0.10	-0.01	0.70	0.55	6.40	18.44	
1.00	0.75	-9.71	0.11	-0.02	0.78	0.56	6.41	18.42	
1.00	0.76	-9.71	0.12	-0.02	0.83	0.56	6.42	18.41	
1.01	0.92	-9.69	0.13	-0.04	0.92	0.57	6.42	18.41	
1.02	1.02	-9.67	0.14	-0.06	0.98	0.57	6.43	18.40	
1.02	1.09	-9.67	0.15	-0.07	1.02	0.57	6.43	18.40	
1.02	1.00	-9.70	0.17	-0.06	0.91	0.57	6.43	18.40	
1.02	0.94	-9.73	0.18	-0.05	0.83	0.57	6.43	18.40	
1.02	0.90	-9.74	0.19	-0.04	0.78	0.57	6.43	18.39	
1.02	0.87	-9.75	0.20	-0.04	0.74	0.57	6.43	18.39	
1.03	0.78	-9.79	0.18	-0.02	0.64	0.57	6.43	18.39	
1.04	0.72	-9.81	0.18	-0.01	0.57	0.57	6.43	18.39	
1.05	0.68	-9.83	0.17	-0.00	0.52	0.57	6.43	18.39	
1.05	0.65	-9.84	0.17	0.00	0.49	0.57	6.43	18.39	
1.04	0.65	-9.81	0.13	0.01	0.42	0.57	6.43	18.39	
1.03	0.65	-9.80	0.11	0.02	0.37	0.57	6.43	18.39	
1.03	0.64	-9.78	0.10	0.02	0.34	0.57	6.43	18.39	
1.07	0.68	-9.84	0.08	0.02	0.25	0.08	6.26	19.26	
1.09	0.70	-9.87	0.06	0.02	0.19	-0.25	6.14	19.82	
1.11	0.72	-9.90	0.05	0.02	0.15	-0.46	6.07	20.18	
1.12	0.73	-9.91	0.04	0.02	0.13	-0.60	6.02	20.42	
1.06	0.73	-9.95	0.02	-0.01	0.03	-0.68	5.99	20.57	
1.02	0.74	-9.97	0.01	-0.03	-0.04	-0.74	5.97	20.68	
0.99	0.74	-9.99	-0.00	-0.04	-0.08	-0.78	5.95	20.74	
0.97	0.74	-10.00	-0.01	-0.05	-0.11	-0.80	5.95	20.78	
0.89	0.66	-9.97	-0.03	-0.05	-0.19	-0.82	5.94	20.81	
0.83	0.61	-9.95	-0.04	-0.06	-0.25	-0.83	5.94	20.83	
0.80	0.57	-9.93	-0.05	-0.06	-0.28	-0.84	5.93	20.84	
0.73	0.54	-9.84	-0.04	-0.02	-0.22	-0.84	5.93	20.85	
0.69	0.51	-9.78	-0.03	0.01	-0.18	-0.84	5.93	20.85	
0.66	0.50	-9.74	-0.03	0.03	-0.16	-0.85	5.93	20.86	
0.64	0.49	-9.71	-0.03	0.04	-0.14	-0.85	5.93	20.86	
0.73	0.53	-9.58	-0.01	0.11	0.01	-0.85	5.93	20.86	
0.79	0.56	-9.49	0.00	0.15	0.10	-0.85	5.93	20.86	
0.83	0.58	-9.43	0.01	0.18	0.17	-0.85	5.93	20.86	
0.85	0.59	-9.40	0.01	0.20	0.21	-0.85	5.93	20.86	
1.03	0.73	-9.30	0.05	0.26	0.43	-0.85	5.93	20.86	
1.15	0.81	-9.24	0.07	0.30	0.58	-0.85	5.93	20.86	
1.23	0.87	-9.20	0.09	0.33	0.68	-0.85	5.93	20.86	
1.15	0.84	-9.19	0.14	0.33	0.83	-0.85	5.93	20.86	
1.10	0.82	-9.18	0.17	0.33	0.92	-0.85	5.93	20.86	
1.06	0.81	-9.18	0.19	0.34	0.98	-0.85	5.93	20.86	
1.04	0.81	-9.17	0.21	0.34	1.02	-0.85	5.93	20.86	
1.33	0.93	-9.31	0.21	0.35	0.95	-0.23	6.19	19.13	
1.52	1.00	-9.40	0.20	0.36	0.90	0.18	6.37	18.01	
1.64	1.05	-9.46	0.20	0.37	0.86	0.44	6.48	17.28	
1.72	1.09	-9.50	0.20	0.37	0.84	0.61	6.55	16.81	
1.82	1.04	-9.65	0.18	0.29	0.65	0.72	6.60	16.50	
1.87	1.01	-9.76	0.17	0.25	0.53	0.79	6.63	16.30	
1.91	0.99	-9.82	0.16	0.21	0.45	0.84	6.65	16.17	
1.84	0.93	-9.86	0.15	0.08	0.25	0.87	6.66	16.08	
1.79	0.89	-9.89	0.14	-0.01	0.13	0.89	6.67	16.03	
1.76	0.87	-9.90	0.13	-0.07	0.04	0.90	6.68	15.99	
1.74	0.85	-9.91	0.13	-0.11	-0.01	0.91	6.68	15.97	
1.61	0.72	-9.98	0.14	-0.21	-0.12	0.92	6.68	15.95	
1.52	0.64	-10.03	0.14	-0.28	-0.20	0.92	6.69	15.94	
1.47	0.58	-10.06	0.15	-0.32	-0.25	0.92	6.69	15.94	
1.43	0.55	-10.08	0.15	-0.35	-0.28	0.93	6.69	15.93	
1.31	0.57	-10.09	0.16	-0.41	-0.35	0.93	6.69	15.93	
1.22	0.59	-10.09	0.16	-0.44	-0.40	0.93	6.69	15.93	
1.17	0.60	-10.10	0.16	-0.47	-0.44	0.93	6.69	15.93	
0.97	0.47	-9.98	0.18	-0.46	-0.62	0.93	6.69	15.93	
0.83	0.38	-9.90	0.19	-0.45	-0.73	0.93	6.69	15.93	
0.75	0.32	-9.86	0.19	-0.45	-0.81	0.93	6.69	15.93	
0.69	0.29	-9.82	0.20	-0.44	-0.86	0.93	6.69	15.93	
0.73	0.25	-9.82	0.19	-0.34	-0.95	1.43	6.60	15.93	
0.76	0.23	-9.82	0.18	-0.28	-1.01	1.75	6.54	15.93	
0.78	0.22	-9.82	0.17	-0.24	-1.05	1.96	6.50	15.93	
0.93	0.26	-9.79	0.21	-0.17	-1.08	2.10	6.48	15.93	
1.03	0.30	-9.76	0.23	-0.13	-1.09	2.19	6.46	15.93	
1.09	0.32	-9.74	0.24	-0.10	-1.10	2.24	6.45	15.93	
1.13	0.33	-9.73	0.25	-0.08	-1.11	2.28	6.45	15.93	
1.03	0.02	-9.87	0.33	-0.04	-1.02	2.31	6.44	15.93	
0.96	-0.18	-9.96	0.39	-0.02	-0.96	2.32	6.44	15.93	
0.91	-0.32	-10.02	0.42	-0.00	-0.92	2.33	6.44	15.93	
0.88	-0.40	-10.06	0.44	0.01	-0.90	2.34	6.44	15.93	
0.89	-0.37	-9.88	0.44	0.09	-0.67	2.34	6.44	15.93	
0.90	-0.35	-9.76	0.44	0.14	-0.53	2.35	6.44	15.93	
0.91	-0.34	-9.68	0.44	0.17	-0.43	2.35	6.44	15.93	
0.85	-0.26	-9.57	0.39	0.16	-0.17	2.35	6.44	15.93	
0.81	-0.21	-9.50	0.36	0.16	0.00	2.35	6.44	15.93	
0.78	-0.17	-9.46	0.35	0.15	0.11	2.35	6.44	15.93	
0.76	-0.15	-9.43	0.33	0.15	0.19	2.35	6.44	15.93	
0.88	-0.12	-9.48	0.31	0.21	0.27	2.35	6.44	15.93	
0.96	-0.09	-9.51	0.29	0.24	0.32	2.35	6.44	15.93	
1.01	-0.07	-9.53	0.28	0.27	0.35	2.35	6.44	15.93	
1.04	-0.06	-9.55	0.27	0.28	0.38	2.35	6.44	15.93	
0.91	-0.13	-9.66	0.25	0.33	0.42	1.54	7.10	15.82	
0.83	-0.17	-9.74	0.23	0.37	0.44	1.02	7.53	15.75	
0.78	-0.20	-9.78	0.22	0.39	0.46	0.67	7.81	15.70	
1.09	-0.03	-9.81	0.14	0.50	0.48	0.45	7.99	15.67	
1.29	0.08	-9.83	0.09	0.57	0.50	0.31	8.11	15.65	
1.42	0.15	-9.84	0.06	0.62	0.51	0.21	8.19	15.64	
1.50	0.20	-9.85	0.04	0.65	0.52	0.15	8.24	15.63	
1.47	0.18	-9.87	0.01	0.62	0.44	0.11	8.27	15.63	
1.45	0.16	-9.89	-0.00	0.61	0.39	0.09	8.29	15.62	
1.44	0.16	-9.89	-0.01	0.60	0.36	0.07	8.31	15.62	
1.43	0.15	-9.90	-0.02	0.59	0.34	0.06	8.32	15.62	
1.49	0.20	-9.82	-0.06	0.57	0.25	0.05	8.32	15.62	
1.53	0.23	-9.77	-0.08	0.56	0.19	0.05	8.32	15.62	
1.56	0.25	-9.73	-0.10	0.55	0.15	0.05	8.33	15.62	
1.67	0.29	-9.74	-0.11	0.50	0.07	0.04	8.33	15.62	
1.74	0.32	-9.74	-0.11	0.47	0.01	0.04	8.33	15.62	
1.79	0.33	-9.74	-0.11	0.45	-0.02	0.04	8.33	15.62	
1.82	0.34	-9.74	-0.12	0.44	-0.04	0.04	8.33	15.62	
1.81	0.26	-9.79	-0.10	0.38	-0.10	0.04	8.33	15.62	
1.81	0.20	-9.82	-0.09	0.33	-0.13	0.04	8.33	15.62	
1.80	0.16	-9.84	-0.08	0.31	-0.16	0.04	8.33	15.62	
1.80	0.14	-9.86	-0.08	0.29	-0.17	0.04	8.33	15.62	
1.76	0.05	-9.85	-0.08	0.26	-0.19	-0.27	7.76	14.65	
1.73	-0.01	-9.85	-0.08	0.23	-0.20	-0.47	7.38	14.01	
1.71	-0.04	-9.84	-0.09	0.22	-0.21	-0.60	7.14	13.60	
1.62	-0.00	-9.87	-0.11	0.17	-0.16	-0.69	6.98	13.34	
1.55	0.03	-9.89	-0.12	0.14	-0.13	-0.75	6.88	13.16	
1.51	0.04	-9.90	-0.13	0.12	-0.11	-0.78	6.81	13.05	
1.48	0.05	-9.90	-0.13	0.10	-0.10	-0.81	6.77	12.98	
1.49	0.08	-9.73	-0.13	0.08	-0.02	-0.82	6.74	12.93	
1.49	0.09	-9.63	-0.13	0.07	0.04	-0.83	6.72	12.90	
1.49	0.10	-9.55	-0.13	0.06	0.07	-0.84	6.71	12.88	
1.49	0.11	-9.51	-0.12	0.05	0.10	-0.84	6.70	12.87	
1.83	0.11	-9.57	-0.11	0.06	0.13	-0.84	6.70	12.86	
2.05	0.11	-9.60	-0.11	0.07	0.16	-0.85	6.69	12.85	
2.19	0.11	-9.63	-0.10	0.07	0.17	-0.85	6.69	12.85	
2.07	0.07	-9.69	-0.10	-0.00	0.16	-0.85	6.69	12.85	
1.99	0.04	-9.73	-0.09	-0.05	0.15	-0.85	6.69	12.84	
1.94	0.02	-9.76	-0.09	-0.09	0.15	-0.85	6.69	12.84	
1.91	0.01	-9.77	-0.09	-0.11	0.14	-0.85	6.69	12.84	
1.65	0.09	-9.67	-0.10	-0.09	0.09	-0.85	6.69	12.84	
1.49	0.15	-9.60	-0.11	-0.08	0.05	-0.85	6.69	12.84	
1.39	0.18	-9.56	-0.12	-0.08	0.03	-0.85	6.69	12.84	
1.32	0.20	-9.53	-0.12	-0.07	0.02	-0.85	6.69	12.84	
1.63	0.22	-9.59	-0.11	-0.02	0.06	-0.85	6.69	12.84	
1.83	0.22	-9.62	-0.10	0.02	0.09	-0.85	6.69	12.84	
1.97	0.23	-9.65	-0.09	0.04	0.12	-0.85	6.69	12.84	
2.02	0.35	-9.68	-0.08	0.00	0.05	-1.16	6.91	13.81	
2.05	0.43	-9.70	-0.07	-0.02	0.01	-1.36	7.05	14.44	
2.07	0.48	-9.71	-0.06	-0.03	-0.02	-1.49	7.15	14.85	
2.09	0.52	-9.72	-0.06	-0.04	-0.03	-1.58	7.21	15.12	
1.07	0.05	-9.73	-0.04	-0.08	-0.12	-1.63	7.25	15.30	
0.41	-0.25	-9.74	-0.03	-0.10	-0.17	-1.67	7.27	15.41	
-0.02	-0.44	-9.75	-0.02	-0.12	-0.20	-1.69	7.29	15.48	
-0.30	-0.57	-9.75	-0.01	-0.13	-0.23	-1.71	7.30	15.53	
0.31	-0.27	-10.00	-0.18	0.12	-0.57	-1.72	7.31	15.56	
0.71	-0.08	-10.16	-0.29	0.28	-0.80	-1.73	7.31	15.58	
0.97	0.04	-10.26	-0.36	0.38	-0.95	-1.73	7.31	15.59	
0.96	0.09	-9.92	-0.42	0.48	-1.13	-1.73	7.32	15.60	
0.95	0.12	-9.70	-0.46	0.54	-1.25	-1.73	7.32	15.61	
0.95	0.14	-9.56	-0.48	0.58	-1.33	-1.74	7.32	15.61	
0.94	0.16	-9.47	-0.50	0.60	-1.38	-1.74	7.32	15.61	
1.28	0.32	-9.42	-0.45	0.63	-1.20	-1.74	7.32	15.61	
1.50	0.43	-9.38	-0.42	0.65	-1.08	-1.74	7.32	15.62	
1.65	0.50	-9.36	-0.40	0.66	-1.01	-1.74	7.32	15.62	
1.74	0.55	-9.35	-0.39	0.67	-0.96	-1.74	7.32	15.62	
1.81	0.63	-9.18	-0.35	0.66	-0.90	-1.74	7.32	15.62	
1.85	0.68	-9.07	-0.33	0.65	-0.87	-1.74	7.32	15.62	
1.88	0.72	-9.00	-0.31	0.64	-0.85	-1.74	7.32	15.62	
1.98	0.84	-9.05	-0.23	0.72	-0.80	-3.04	6.66	15.51	
2.04	0.92	-9.08	-0.18	0.77	-0.78	-3.89	6.22	15.44	
2.08	0.97	-9.10	-0.15	0.80	-0.76	-4.45	5.94	15.39	
2.10	1.01	-9.12	-0.13	0.82	-0.75	-4.80	5.76	15.36	
2.39	0.97	-9.20	-0.02	0.92	-0.72	-5.04	5.64	15.34	
2.58	0.95	-9.25	0.05	0.98	-0.70	-5.19	5.57	15.33	
2.71	0.94	-9.29	0.09	1.02	-0.68	-5.29	5.52	15.32	
2.68	1.02	-9.17	0.23	0.99	-0.49	-5.35	5.48	15.32	
2.66	1.07	-9.08	0.33	0.98	-0.37	-5.39	5.46	15.32	
2.64	1.11	-9.03	0.39	0.97	-0.29	-5.42	5.45	15.31	
2.64	1.13	-9.00	0.43	0.96	-0.23	-5.44	5.44	15.31	
2.52	1.13	-8.85	0.61	0.97	-0.13	-5.45	5.43	15.31	
2.45	1.12	-8.75	0.73	0.98	-0.07	-5.46	5.43	15.31	
2.40	1.12	-8.69	0.81	0.98	-0.03	-5.46	5.43	15.31	
2.37	1.12	-8.65	0.86	0.98	-0.00	-5.47	5.43	15.31	
2.44	0.97	-8.66	1.07	1.08	0.02	-5.47	5.43	15.31	
2.48	0.88	-8.67	1.21	1.14	0.03	-5.47	5.42	15.31	
2.51	0.81	-8.67	1.30	1.18	0.03	-5.47	5.42	15.31	
2.82	0.49	-8.82	1.40	1.20	-0.02	-5.47	5.42	15.31	
3.02	0.28	-8.92	1.46	1.21	-0.06	-5.47	5.42	15.31	
3.15	0.14	-8.98	1.51	1.22	-0.08	-5.47	5.42	15.31	
3.23	0.05	-9.02	1.53	1.23	-0.09	-5.47	5.42	15.31	
3.26	-0.20	-9.07	1.50	1.10	-0.04	-6.28	6.09	11.96	
3.28	-0.36	-9.11	1.47	1.02	-0.01	-6.81	6.52	9.79	
3.29	-0.46	-9.13	1.46	0.97	0.01	-7.15	6.80	8.37	
3.30	-0.53	-9.14	1.45	0.94	0.02	-7.37	6.98	7.45	
3.36	-0.54	-9.16	1.35	0.87	0.11	-7.51	7.10	6.86	
3.40	-0.54	-9.17	1.28	0.83	0.17	-7.61	7.18	6.47	
3.42	-0.55	-9.18	1.24	0.81	0.21	-7.67	7.23	6.21	
3.61	-0.45	-9.02	1.14	0.79	0.15	-7.71	7.26	6.05	
3.74	-0.39	-8.92	1.07	0.78	0.11	-7.73	7.28	5.94	
3.82	-0.34	-8.85	1.02	0.77	0.09	-7.75	7.29	5.87	
3.87	-0.32	-8.81	1.00	0.76	0.07	-7.76	7.30	5.83	
4.05	-0.15	-8.66	1.01	0.66	0.06	-7.77	7.31	5.80	
4.17	-0.05	-8.56	1.03	0.60	0.05	-7.77	7.31	5.78	
4.25	0.02	-8.50	1.03	0.56	0.04	-7.78	7.32	5.77	
4.30	0.06	-8.46	1.04	0.53	0.04	-7.78	7.32	5.76	
4.30	0.03	-8.42	1.16	0.39	0.12	-7.78	7.32	5.76	
4.29	0.00	-8.40	1.23	0.29	0.18	-7.78	7.32	5.75	
4.29	-0.01	-8.38	1.28	0.23	0.21	-7.78	7.32	5.75	
4.29	-0.24	-8.45	1.42	0.20	0.22	-7.78	7.32	5.75	
4.29	-0.39	-8.50	1.51	0.18	0.23	-7.78	7.32	5.75	
4.29	-0.49	-8.53	1.57	0.17	0.23	-7.78	7.32	5.75	
4.29	-0.55	-8.55	1.61	0.16	0.24	-7.78	7.32	5.75	
4.39	-0.87	-8.78	1.68	0.17	0.23	-8.40	8.38	3.59	
4.46	-1.07	-8.93	1.72	0.17	0.23	-8.81	9.07	2.18	
4.50	-1.20	-9.02	1.75	0.17	0.22	-9.07	9.52	1.27	
4.53	-1.29	-9.09	1.77	0.17	0.22	-9.24	9.81	0.68	
4.56	-1.50	-9.11	1.74	0.11	0.23	-9.35	10.00	0.29	
4.58	-1.64	-9.13	1.72	0.07	0.23	-9.43	10.13	0.04	
4.59	-1.73	-9.14	1.71	0.04	0.24	-9.47	10.21	-0.12	
4.65	-1.67	-8.89	1.61	-0.05	0.15	-9.50	10.26	-0.23	
4.69	-1.62	-8.72	1.55	-0.12	0.09	-9.52	10.29	-0.30	
4.72	-1.60	-8.61	1.51	-0.16	0.05	-9.54	10.31	-0.34	
4.73	-1.58	-8.54	1.48	-0.18	0.03	-9.54	10.33	-0.37	
4.67	-1.74	-8.37	1.48	-0.28	-0.00	-9.55	10.34	-0.39	
4.63	-1.84	-8.26	1.47	-0.34	-0.02	-9.55	10.34	-0.40	
4.60	-1.91	-8.19	1.47	-0.39	-0.03	-9.56	10.35	-0.41	
4.59	-1.96	-8.15	1.47	-0.41	-0.04	-9.56	10.35	-0.41	
4.43	-2.27	-8.14	1.52	-0.51	-0.03	-9.56	10.35	-0.42	
4.34	-2.47	-8.13	1.55	-0.58	-0.02	-9.56	10.35	-0.42	
4.27	-2.61	-8.13	1.57	-0.62	-0.01	-9.56	10.35	-0.42	
4.27	-2.91	-8.25	1.61	-0.69	-0.06	-9.56	10.35	-0.42	
4.26	-3.10	-8.33	1.64	-0.74	-0.09	-9.56	10.35	-0.42	
4.26	-3.23	-8.39	1.66	-0.77	-0.11	-9.56	10.35	-0.42	
4.26	-3.31	-8.42	1.67	-0.80	-0.12	-9.56	10.35	-0.42	
4.13	-3.59	-8.48	1.72	-0.91	-0.10	-9.56	10.36	-0.42	
4.05	-3.77	-8.52	1.76	-0.98	-0.09	-9.56	10.36	-0.42	
4.00	-3.89	-8.55	1.78	-1.03	-0.08	-9.56	10.36	-0.42	
3.99	-4.48	-8.85	1.80	-1.09	-0.04	-9.75	12.08	-0.96	
3.99	-4.87	-9.05	1.82	-1.13	-0.02	-9.87	13.20	-1.31	
3.98	-5.12	-9.18	1.83	-1.16	0.00	-9.95	13.93	-1.54	
3.98	-5.28	-9.26	1.83	-1.17	0.01	-10.00	14.41	-1.69	
3.61	-5.61	-9.27	1.74	-1.29	0.26	-10.03	14.71	-1.79	
3.37	-5.83	-9.27	1.69	-1.37	0.42	-10.05	14.92	-1.85	
3.21	-5.97	-9.27	1.65	-1.42	0.52	-10.07	15.05	-1.89	
3.11	-6.06	-9.27	1.62	-1.45	0.59	-10.08	15.13	-1.92	
2.66	-6.24	-9.10	1.45	-1.49	0.75	-10.08	15.18	-1.93	
2.36	-6.36	-8.98	1.34	-1.52	0.86	-10.09	15.22	-1.94	
2.17	-6.43	-8.91	1.27	-1.54	0.92	-10.09	15.24	-1.95	
1.91	-6.36	-8.70	1.08	-1.50	1.04	-10.09	15.26	-1.96	
1.75	-6.30	-8.57	0.95	-1.47	1.12	-10.09	15.27	-1.96	
1.64	-6.27	-8.48	0.87	-1.45	1.17	-10.09	15.28	-1.96	
1.57	-6.25	-8.43	0.81	-1.44	1.20	-10.09	15.28	-1.96	
1.41	-5.97	-7.93	0.69	-1.38	1.28	-10.09	15.28	-1.96	
1.31	-5.78	-7.61	0.61	-1.34	1.32	-10.09	15.28	-1.96	
1.24	-5.66	-7.41	0.55	-1.32	1.35	-10.09	15.28	-1.96	
1.25	-5.79	-7.81	0.47	-1.31	1.48	-10.09	15.29	-1.97	
1.26	-5.87	-8.08	0.41	-1.31	1.57	-10.09	15.29	-1.97	
1.26	-5.93	-8.25	0.37	-1.31	1.62	-10.09	15.29	-1.97	
1.27	-5.96	-8.36	0.35	-1.31	1.65	-10.09	15.29	-1.97	
1.20	-5.87	-8.45	0.21	-1.33	1.72	-7.54	16.57	-1.21	
1.16	-5.80	-8.51	0.12	-1.34	1.76	-5.88	17.40	-0.72	
1.14	-5.76	-8.54	0.06	-1.35	1.79	-4.81	17.95	-0.40	
0.95	-5.64	-8.66	-0.09	-1.34	1.76	-4.11	18.30	-0.19	
0.82	-5.56	-8.74	-0.19	-1.34	1.73	-3.65	18.53	-0.06	
0.74	-5.51	-8.79	-0.25	-1.34	1.72	-3.35	18.68	0.03	
0.69	-5.48	-8.82	-0.29	-1.34	1.71	-3.16	18.77	0.09	
0.39	-5.37	-8.75	-0.52	-1.25	1.67	-3.04	18.84	0.12	
0.19	-5.29	-8.71	-0.66	-1.19	1.65	-2.96	18.88	0.15	
0.06	-5.24	-8.68	-0.76	-1.16	1.63	-2.90	18.90	0.16	
-0.02	-5.21	-8.66	-0.82	-1.13	1.62	-2.87	18.92	0.17	
-0.23	-4.71	-8.27	-1.02	-0.92	1.42	-2.85	18.93	0.18	
-0.36	-4.38	-8.01	-1.16	-0.78	1.29	-2.83	18.94	0.19	
-0.44	-4.17	-7.85	-1.24	-0.68	1.21	-2.82	18.95	0.19	
-0.43	-4.13	-8.03	-1.28	-0.45	0.95	-2.82	18.95	0.19	
-0.43	-4.10	-8.16	-1.31	-0.30	0.78	-2.81	18.95	0.19	
-0.42	-4.08	-8.24	-1.33	-0.20	0.67	-2.81	18.95	0.19	
-0.42	-4.07	-8.29	-1.34	-0.14	0.60	-2.81	18.95	0.19	
-0.41	-4.02	-8.42	-1.32	-0.04	0.48	-2.81	18.95	0.19	
-0.41	-4.00	-8.51	-1.31	0.02	0.39	-2.81	18.95	0.19	
-0.41	-3.98	-8.57	-1.31	0.05	0.34	-2.81	18.95	0.19	
-0.41	-3.97	-8.61	-1.30	0.08	0.30	-2.81	18.95	0.19	
-0.55	-3.90	-8.55	-1.32	0.15	0.23	-0.63	18.11	3.32	
-0.64	-3.85	-8.51	-1.33	0.20	0.18	0.79	17.57	5.36	
-0.70	-3.82	-8.49	-1.33	0.23	0.14	1.71	17.21	6.68	
-0.75	-3.71	-8.45	-1.39	0.36	0.08	2.31	16.98	7.54	
-0.78	-3.63	-8.43	-1.43	0.44	0.04	2.70	16.83	8.10	
-0.80	-3.59	-8.41	-1.45	0.50	0.01	2.95	16.73	8.46	
-0.81	-3.55	-8.40	-1.47	0.53	-0.00	3.11	16.67	8.70	
-0.55	-3.34	-8.40	-1.56	0.69	-0.05	3.22	16.63	8.85	
-0.38	-3.21	-8.40	-1.62	0.79	-0.07	3.29	16.60	8.95	
-0.27	-3.12	-8.40	-1.65	0.85	-0.09	3.33	16.58	9.02	
-0.18	-2.97	-8.50	-1.76	0.96	-0.15	3.36	16.57	9.06	
-0.13	-2.88	-8.56	-1.83	1.03	-0.18	3.38	16.57	9.09	
-0.09	-2.82	-8.59	-1.88	1.08	-0.20	3.39	16.56	9.11	
-0.07	-2.78	-8.62	-1.91	1.11	-0.22	3.40	16.56	9.12	
0.12	-2.33	-8.71	-1.97	1.18	-0.33	3.41	16.56	9.13	
0.24	-2.03	-8.77	-2.01	1.23	-0.41	3.41	16.55	9.13	
0.32	-1.84	-8.81	-2.03	1.26	-0.45	3.41	16.55	9.13	
0.37	-1.72	-8.83	-2.05	1.27	-0.48	3.41	16.55	9.14	
0.31	-1.79	-8.96	-1.84	1.28	-0.51	3.42	16.55	9.14	
0.27	-1.84	-9.05	-1.71	1.29	-0.52	3.42	16.55	9.14	
0.25	-1.87	-9.10	-1.63	1.29	-0.53	3.42	16.55	9.14	
0.80	-1.76	-9.33	-1.53	1.34	-0.63	3.42	16.55	9.14	
1.17	-1.68	-9.47	-1.46	1.36	-0.69	3.42	16.55	9.14	
1.40	-1.63	-9.57	-1.42	1.38	-0.73	3.42	16.55	9.14	
1.55	-1.60	-9.63	-1.39	1.40	-0.76	3.42	16.55	9.14	
1.83	-1.36	-9.67	-1.33	1.31	-0.72	1.92	14.43	9.57	
2.00	-1.20	-9.70	-1.30	1.26	-0.70	0.95	13.05	9.85	
2.12	-1.10	-9.72	-1.28	1.22	-0.68	0.32	12.15	10.03	
2.20	-1.03	-9.73	-1.26	1.20	-0.67	-0.09	11.57	10.15	
2.06	-1.04	-9.64	-1.10	1.14	-0.52	-0.35	11.19	10.23	
1.97	-1.05	-9.57	-1.00	1.10	-0.42	-0.53	10.94	10.28	
1.92	-1.05	-9.53	-0.93	1.07	-0.35	-0.64	10.78	10.31	
1.80	-1.05	-9.44	-0.84	1.14	-0.30	-0.71	10.68	10.33	
1.72	-1.04	-9.38	-0.78	1.18	-0.26	-0.76	10.61	10.35	
1.67	-1.04	-9.34	-0.74	1.21	-0.24	-0.79	10.56	10.36	
1.64	-1.04	-9.32	-0.71	1.22	-0.22	-0.81	10.53	10.36	
1.58	-1.08	-9.26	-0.64	1.32	-0.21	-0.82	10.52	10.37	
1.54	-1.11	-9.23	-0.59	1.38	-0.20	-0.83	10.50	10.37	
1.52	-1.13	-9.21	-0.56	1.42	-0.20	-0.84	10.50	10.37	
1.76	-0.94	-8.94	-0.49	1.54	-0.21	-0.84	10.49	10.37	
1.92	-0.82	-8.76	-0.44	1.61	-0.22	-0.84	10.49	10.37	
2.03	-0.74	-8.65	-0.41	1.66	-0.22	-0.85	10.49	10.37	
2.10	-0.69	-8.57	-0.40	1.69	-0.23	-0.85	10.48	10.37	
2.38	-0.76	-8.67	-0.32	1.70	-0.24	-0.85	10.48	10.37	
2.57	-0.81	-8.73	-0.27	1.71	-0.25	-0.85	10.48	10.37	
2.69	-0.84	-8.77	-0.24	1.72	-0.26	-0.85	10.48	10.37	
2.77	-0.86	-8.80	-0.22	1.72	-0.26	-0.85	10.48	10.37	
3.23	-0.71	-8.79	-0.15	1.62	-0.21	-2.65	10.08	8.97	
3.52	-0.62	-8.79	-0.10	1.55	-0.18	-3.83	9.82	8.06	
3.72	-0.56	-8.79	-0.07	1.50	-0.16	-4.59	9.66	7.46	
3.86	-0.48	-8.86	0.03	1.29	-0.11	-5.08	9.55	7.08	
3.96	-0.44	-8.91	0.09	1.15	-0.08	-5.41	9.48	6.83	
4.02	-0.41	-8.94	0.13	1.06	-0.06	-5.62	9.43	6.67	
4.06	-0.39	-8.96	0.16	1.01	-0.04	-5.75	9.40	6.56	
4.16	-0.52	-9.14	0.23	0.89	-0.13	-5.84	9.38	6.49	
4.23	-0.61	-9.27	0.28	0.81	-0.18	-5.90	9.37	6.45	
4.28	-0.66	-9.35	0.31	0.76	-0.22	-5.94	9.36	6.42	
4.27	-0.78	-9.47	0.35	0.61	-0.32	-5.96	9.35	6.40	
4.27	-0.86	-9.55	0.38	0.51	-0.38	-5.98	9.35	6.39	
4.26	-0.91	-9.60	0.40	0.44	-0.43	-5.99	9.35	6.38	
4.26	-0.95	-9.63	0.41	0.40	-0.45	-5.99	9.35	6.37	
4.49	-0.81	-9.66	0.42	0.29	-0.60	-6.00	9.35	6.37	
4.64	-0.72	-9.68	0.43	0.22	-0.70	-6.00	9.34	6.37	
4.73	-0.66	-9.69	0.43	0.18	-0.76	-6.00	9.34	6.37	
4.80	-0.62	-9.70	0.44	0.15	-0.81	-6.00	9.34	6.36	
4.82	-0.59	-9.60	0.41	0.02	-1.02	-6.00	9.34	6.36	
4.83	-0.57	-9.53	0.40	-0.06	-1.16	-6.00	9.34	6.36	
4.84	-0.55	-9.49	0.39	-0.11	-1.25	-6.00	9.34	6.36	
4.76	-0.55	-9.35	0.29	-0.20	-1.34	-7.12	8.99	6.15	
4.71	-0.55	-9.27	0.23	-0.25	-1.40	-7.85	8.76	6.01	
4.68	-0.55	-9.21	0.19	-0.29	-1.44	-8.33	8.61	5.92	
4.66	-0.55	-9.17	0.16	-0.31	-1.46	-8.63	8.51	5.86	
4.52	-0.57	-9.02	0.12	-0.36	-1.36	-8.83	8.45	5.82	
4.43	-0.59	-8.92	0.08	-0.40	-1.30	-8.96	8.41	5.79	
4.37	-0.60	-8.85	0.06	-0.42	-1.26	-9.05	8.38	5.78	
4.34	-0.60	-8.81	0.05	-0.43	-1.23	-9.10	8.36	5.77	
4.31	-0.48	-8.82	0.08	-0.47	-1.03	-9.14	8.35	5.76	
4.30	-0.39	-8.82	0.10	-0.50	-0.90	-9.16	8.35	5.75	
4.29	-0.34	-8.83	0.11	-0.52	-0.81	-9.18	8.34	5.75	
4.16	-0.27	-8.84	0.16	-0.56	-0.88	-9.19	8.34	5.75	
4.08	-0.23	-8.85	0.19	-0.59	-0.92	-9.19	8.34	5.75	
4.03	-0.21	-8.86	0.21	-0.61	-0.94	-9.20	8.33	5.75	
3.99	-0.19	-8.86	0.23	-0.62	-0.96	-9.20	8.33	5.75	
3.76	-0.53	-8.87	0.18	-0.56	-1.55	-9.20	8.33	5.75	
3.61	-0.76	-8.87	0.14	-0.51	-1.93	-9.20	8.33	5.75	
3.51	-0.90	-8.87	0.12	-0.49	-2.18	-9.20	8.33	5.75	
3.45	-1.00	-8.87	0.11	-0.47	-2.34	-9.20	8.33	5.75	
3.39	-1.04	-8.94	-0.01	-0.34	-2.83	-9.20	8.33	5.75	
3.35	-1.07	-8.98	-0.08	-0.25	-3.15	-9.20	8.33	5.75	
3.33	-1.09	-9.01	-0.13	-0.20	-3.36	-9.20	8.33	5.75	
3.37	-1.11	-9.03	-0.25	-0.09	-3.71	-9.45	6.47	6.61	
3.39	-1.13	-9.04	-0.33	-0.02	-3.93	-9.62	5.26	7.17	
3.40	-1.14	-9.05	-0.38	0.02	-4.08	-9.72	4.48	7.54	
3.41	-1.14	-9.06	-0.42	0.05	-4.18	-9.79	3.97	7.77	
3.42	-0.94	-9.17	-0.38	0.05	-3.76	-9.83	3.64	7.93	
3.42	-0.81	-9.25	-0.36	0.06	-3.48	-9.86	3.42	8.03	
3.42	-0.72	-9.30	-0.35	0.06	-3.30	-9.88	3.28	8.09	
3.42	-0.66	-9.33	-0.34	0.06	-3.19	-9.89	3.19	8.14	
3.40	-0.58	-9.33	-0.27	0.05	-2.66	-9.90	3.13	8.16	
3.38	-0.52	-9.33	-0.22	0.05	-2.32	-9.91	3.09	8.18	
3.37	-0.48	-9.32	-0.19	0.05	-2.10	-9.91	3.07	8.19	
3.48	-0.27	-9.29	-0.12	0.04	-1.73	-9.91	3.05	8.20	
3.56	-0.13	-9.26	-0.08	0.03	-1.49	-9.91	3.04	8.20	
3.60	-0.05	-9.25	-0.05	0.02	-1.34	-9.91	3.03	8.21	
3.63	0.01	-9.24	-0.03	0.02	-1.24	-9.91	3.03	8.21	
3.67	0.20	-9.23	-0.07	0.03	-1.42	-9.91	3.03	8.21	
3.69	0.32	-9.22	-0.09	0.03	-1.53	-9.92	3.02	8.21	
3.70	0.40	-9.22	-0.11	0.04	-1.61	-9.92	3.02	8.21	
3.71	0.46	-9.22	-0.12	0.04	-1.66	-9.92	3.02	8.21	
3.66	0.53	-9.21	-0.09	0.00	-1.58	-9.92	3.02	8.21	
3.63	0.58	-9.20	-0.07	-0.02	-1.53	-9.92	3.02	8.21	
3.60	0.61	-9.20	-0.06	-0.03	-1.50	-9.92	3.02	8.21	
3.55	0.67	-9.20	0.01	-0.07	-1.10	-9.92	3.02	8.21	
3.51	0.71	-9.20	0.06	-0.10	-0.84	-9.92	3.02	8.21	
3.48	0.74	-9.20	0.09	-0.11	-0.67	-9.92	3.02	8.21	
3.47	0.75	-9.20	0.11	-0.13	-0.56	-9.92	3.02	8.21	
3.42	0.63	-9.24	0.21	-0.16	0.02	-10.48	1.38	7.46	
3.39	0.55	-9.26	0.28	-0.19	0.39	-10.84	0.32	6.97	
3.37	0.50	-9.28	0.32	-0.21	0.64	-11.08	-0.37	6.65	
3.35	0.46	-9.29	0.34	-0.22	0.80	-11.23	-0.82	6.44	
3.32	0.15	-9.26	0.43	-0.25	1.50	-11.33	-1.12	6.31	
3.30	-0.06	-9.23	0.48	-0.26	1.96	-11.39	-1.31	6.22	
3.28	-0.19	-9.22	0.52	-0.28	2.26	-11.44	-1.43	6.16	
3.29	-0.34	-9.21	0.58	-0.30	-0.05	-11.46	-1.51	6.12	
3.30	-0.43	-9.21	0.63	-0.31	-1.56	-11.48	-1.56	6.10	
3.30	-0.50	-9.21	0.65	-0.32	-2.54	-11.49	-1.60	6.08	
3.31	-0.54	-9.21	0.67	-0.33	-3.17	-11.50	-1.62	6.07	
3.20	-0.88	-9.26	0.66	-0.31	-3.59	-11.51	-1.63	6.07	
3.13	-1.10	-9.30	0.65	-0.30	-3.85	-11.51	-1.64	6.06	
3.09	-1.25	-9.32	0.65	-0.29	-4.03	-11.51	-1.65	6.06	
3.06	-1.35	-9.33	0.64	-0.28	-4.14	-11.51	-1.65	6.06	
3.22	-1.28	-9.35	0.55	-0.22	-4.22	-11.51	-1.65	6.06	
3.33	-1.24	-9.36	0.49	-0.17	-4.26	-11.51	-1.66	6.06	
3.39	-1.22	-9.37	0.45	-0.15	-4.30	-11.51	-1.66	6.06	
3.29	-1.27	-9.32	0.39	-0.12	-4.32	-11.52	-1.66	6.06	
3.22	-1.31	-9.29	0.35	-0.10	-4.33	-11.52	-1.66	6.06	
3.18	-1.33	-9.27	0.33	-0.08	-4.34	-11.52	-1.66	6.05	
3.15	-1.35	-9.26	0.31	-0.07	-4.34	-11.52	-1.66	6.05	
3.31	-1.05	-9.28	0.30	-0.04	-1.44	-9.90	2.86	6.70	
3.42	-0.85	-9.30	0.29	-0.02	0.45	-8.85	5.79	7.12	
3.49	-0.73	-9.31	0.29	-0.01	1.67	-8.16	7.70	7.40	
3.26	-0.94	-9.24	0.33	-0.05	2.06	-7.72	8.94	7.58	
3.12	-1.08	-9.19	0.35	-0.08	2.32	-7.43	9.74	7.69	
3.02	-1.17	-9.16	0.37	-0.10	2.48	-7.24	10.27	7.77	
2.96	-1.23	-9.13	0.38	-0.11	2.59	-7.12	10.61	7.81	
2.80	-1.44	-9.16	0.40	-0.14	2.40	-7.04	10.83	7.85	
2.69	-1.58	-9.18	0.42	-0.15	2.28	-6.99	10.97	7.87	
2.62	-1.67	-9.19	0.43	-0.16	2.20	-6.96	11.07	7.88	
2.58	-1.73	-9.20	0.43	-0.17	2.15	-6.93	11.13	7.89	
2.58	-1.82	-9.18	0.43	-0.17	1.93	-6.92	11.17	7.89	
2.59	-1.88	-9.17	0.43	-0.17	1.78	-6.91	11.19	7.90	
2.59	-1.92	-9.17	0.43	-0.17	1.69	-6.90	11.21	7.90	
2.56	-2.41	-9.22	0.40	-0.21	1.59	-6.90	11.22	7.90	
2.54	-2.73	-9.26	0.38	-0.24	1.52	-6.90	11.23	7.90	
2.52	-2.94	-9.29	0.36	-0.25	1.48	-6.90	11.23	7.90	
2.51	-3.07	-9.30	0.35	-0.26	1.45	-6.90	11.23	7.90	
2.48	-2.60	-9.23	0.28	-0.29	1.60	-6.89	11.24	7.90	
2.46	-2.30	-9.19	0.24	-0.30	1.70	-6.89	11.24	7.91	
2.44	-2.10	-9.16	0.21	-0.31	1.77	-6.89	11.24	7.91	
2.41	-2.16	-9.15	0.21	-0.24	1.50	-4.53	12.57	6.83	
2.38	-2.20	-9.15	0.21	-0.19	1.33	-2.99	13.43	6.12	
2.37	-2.22	-9.14	0.22	-0.16	1.21	-1.99	13.99	5.67	
2.35	-2.24	-9.14	0.22	-0.14	1.14	-1.34	14.36	5.37	
2.29	-2.37	-9.21	0.27	-0.11	1.03	-0.92	14.59	5.18	
2.25	-2.46	-9.26	0.30	-0.09	0.96	-0.65	14.75	5.05	
2.22	-2.52	-9.29	0.32	-0.08	0.92	-0.47	14.85	4.97	
2.20	-2.56	-9.31	0.34	-0.08	0.89	-0.35	14.91	4.92	
2.21	-3.17	-9.55	0.37	-0.11	0.99	-0.28	14.96	4.88	
2.22	-3.56	-9.71	0.40	-0.13	1.06	-0.23	14.98	4.86	
2.23	-3.82	-9.81	0.41	-0.15	1.11	-0.20	15.00	4.85	
2.01	-2.80	-9.33	0.36	-0.20	1.45	-0.18	15.01	4.84	
1.87	-2.14	-9.01	0.33	-0.24	1.67	-0.16	15.02	4.83	
1.78	-1.71	-8.81	0.31	-0.26	1.82	-0.15	15.02	4.83	
1.72	-1.43	-8.68	0.29	-0.28	1.91	-0.15	15.03	4.83	
1.78	-2.31	-9.00	0.40	-0.18	1.68	-0.14	15.03	4.82	
1.81	-2.88	-9.20	0.47	-0.12	1.53	-0.14	15.03	4.82	
1.83	-3.25	-9.34	0.51	-0.07	1.43	-0.14	15.03	4.82	
1.85	-3.50	-9.43	0.54	-0.05	1.37	-0.14	15.03	4.82	
1.76	-2.93	-9.14	0.42	-0.10	1.73	-0.14	15.03	4.82	
1.70	-2.57	-8.96	0.35	-0.13	1.96	-0.14	15.03	4.82	
1.66	-2.33	-8.84	0.30	-0.15	2.11	-0.14	15.03	4.82	
1.63	-2.61	-8.95	0.29	-0.11	1.89	2.04	16.49	4.50	
1.61	-2.79	-9.02	0.29	-0.08	1.75	3.46	17.44	4.29	
1.60	-2.91	-9.06	0.28	-0.06	1.66	4.38	18.06	4.15	
1.59	-2.99	-9.09	0.28	-0.05	1.60	4.97	18.46	4.06	
1.60	-3.08	-9.05	0.26	-0.03	1.31	5.36	18.72	4.00	
1.60	-3.14	-9.02	0.24	-0.02	1.12	5.61	18.89	3.97	
1.60	-3.17	-9.01	0.24	-0.01	0.99	5.78	19.00	3.94	
1.60	-3.20	-9.00	0.23	-0.01	0.91	5.89	19.07	3.92	
1.58	-3.16	-9.02	0.25	-0.00	0.86	5.96	19.12	3.91	
1.56	-3.14	-9.04	0.26	-0.00	0.83	6.00	19.15	3.91	
1.55	-3.13	-9.05	0.27	-0.00	0.81	6.03	19.17	3.90	
1.48	-3.16	-9.04	0.26	-0.03	0.73	6.05	19.18	3.90	
1.44	-3.18	-9.04	0.25	-0.05	0.68	6.06	19.19	3.90	
1.41	-3.20	-9.03	0.25	-0.07	0.64	6.07	19.20	3.90	
1.39	-3.21	-9.03	0.25	-0.07	0.62	6.07	19.20	3.90	
1.32	-3.30	-9.05	0.23	-0.09	0.53	6.08	19.20	3.90	
1.28	-3.36	-9.06	0.21	-0.10	0.47	6.08	19.20	3.90	
1.25	-3.39	-9.07	0.20	-0.10	0.43	6.08	19.21	3.90	
1.24	-3.45	-9.11	0.18	-0.08	0.39	6.08	19.21	3.90	
1.24	-3.48	-9.13	0.17	-0.06	0.37	6.08	19.21	3.90	
1.24	-3.51	-9.14	0.17	-0.05	0.35	6.08	19.21	3.90	
1.23	-3.52	-9.15	0.16	-0.04	0.34	6.08	19.21	3.90	
1.20	-3.52	-9.15	0.15	-0.02	0.36	6.08	19.21	3.90	
1.18	-3.51	-9.15	0.14	-0.01	0.37	6.08	19.21	3.90	
1.17	-3.51	-9.16	0.14	0.00	0.37	6.08	19.21	3.90	
1.16	-3.51	-9.16	0.14	0.01	0.38	6.08	19.21	3.90	
1.12	-3.49	-9.17	0.10	0.01	0.36	6.52	19.61	4.00	
1.10	-3.47	-9.17	0.08	0.01	0.35	6.80	19.86	4.07	
1.09	-3.46	-9.18	0.07	0.01	0.35	6.99	20.03	4.12	
1.09	-3.48	-9.15	0.04	0.03	0.27	7.11	20.14	4.15	
1.09	-3.49	-9.14	0.01	0.04	0.23	7.18	20.21	4.17	
1.09	-3.49	-9.13	0.00	0.04	0.19	7.23	20.26	4.18	
1.09	-3.50	-9.12	-0.01	0.05	0.17	7.27	20.29	4.19	
1.12	-3.48	-9.09	-0.02	0.06	0.12	7.29	20.31	4.19	
1.15	-3.46	-9.08	-0.03	0.07	0.09	7.30	20.32	4.20	
1.16	-3.45	-9.06	-0.03	0.07	0.07	7.31	20.33	4.20	
1.18	-3.44	-9.06	-0.04	0.08	0.06	7.32	20.34	4.20	
1.18	-3.45	-9.08	-0.04	0.08	0.02	7.32	20.34	4.20	
1.18	-3.46	-9.09	-0.05	0.09	-0.01	7.32	20.34	4.20	
1.18	-3.46	-9.10	-0.05	0.09	-0.03	7.33	20.34	4.20	
1.21	-3.41	-9.07	-0.07	0.08	-0.09	7.33	20.34	4.20	
1.22	-3.39	-9.06	-0.09	0.07	-0.13	7.33	20.34	4.20	
1.23	-3.37	-9.04	-0.10	0.07	-0.15	7.33	20.34	4.20	
1.24	-3.36	-9.04	-0.10	0.07	-0.17	7.33	20.34	4.20	
1.28	-3.36	-9.07	-0.13	0.08	-0.26	7.33	20.34	4.20	
1.30	-3.36	-9.09	-0.14	0.08	-0.32	7.33	20.35	4.20	
1.32	-3.36	-9.11	-0.15	0.09	-0.35	7.33	20.35	4.20	
1.33	-3.36	-9.12	-0.16	0.09	-0.38	7.33	20.35	4.20	
1.28	-3.27	-9.09	-0.21	0.10	-0.51	6.83	20.08	3.77	
1.25	-3.21	-9.06	-0.25	0.11	-0.59	6.51	19.91	3.49	
1.22	-3.17	-9.05	-0.27	0.11	-0.64	6.30	19.79	3.31	
1.43	-2.92	-9.13	-0.31	0.19	-1.00	6.16	19.72	3.19	
1.56	-2.76	-9.18	-0.34	0.24	-1.23	6.07	19.67	3.11	
1.65	-2.66	-9.22	-0.36	0.27	-1.39	6.01	19.64	3.06	
1.70	-2.59	-9.24	-0.37	0.29	-1.48	5.98	19.62	3.03	
1.75	-2.44	-9.13	-0.37	0.32	-2.12	5.95	19.61	3.01	
1.78	-2.34	-9.06	-0.37	0.35	-2.53	5.94	19.60	3.00	
1.80	-2.28	-9.01	-0.37	0.36	-2.80	5.93	19.60	2.99	
1.81	-2.24	-8.98	-0.37	0.37	-2.97	5.92	19.59	2.98	
2.14	-2.69	-9.07	-0.33	0.41	-3.46	5.91	19.59	2.98	
2.36	-2.98	-9.13	-0.31	0.44	-3.77	5.91	19.59	2.97	
2.50	-3.17	-9.17	-0.30	0.45	-3.98	5.91	19.59	2.97	
2.59	-2.94	-9.12	-0.34	0.40	-3.98	5.91	19.59	2.97	
2.65	-2.79	-9.09	-0.37	0.37	-3.98	5.91	19.59	2.97	
2.69	-2.69	-9.07	-0.38	0.35	-3.98	5.91	19.59	2.97	
2.71	-2.62	-9.05	-0.39	0.34	-3.98	5.91	19.59	2.97	
2.79	-2.59	-9.11	-0.45	0.31	-3.96	5.91	19.59	2.97	
2.84	-2.56	-9.15	-0.49	0.30	-3.94	5.91	19.59	2.97	
2.87	-2.55	-9.17	-0.51	0.28	-3.93	5.91	19.59	2.97	
2.89	-2.37	-9.19	-0.63	0.30	-3.98	17.85	19.59	2.97	
2.90	-2.26	-9.21	-0.70	0.31	-4.00	9.69	16.67	4.70	
2.90	-2.18	-9.22	-0.74	0.31	-4.02	4.38	14.77	5.82	
2.91	-2.14	-9.23	-0.77	0.32	-4.03	0.93	13.53	6.55	
2.90	-2.06	-9.23	-0.90	0.35	-4.15	-1.31	12.73	7.02	
2.90	-2.01	-9.24	-0.98	0.37	-4.22	-2.76	12.21	7.33	
2.90	-1.98	-9.24	-1.03	0.38	-4.27	-3.71	11.87	7.53	
2.90	-1.96	-9.25	-1.07	0.39	-4.30	-4.33	11.65	7.66	
3.03	-1.74	-9.17	-1.19	0.44	-4.32	-4.73	11.51	7.75	
3.12	-1.59	-9.11	-1.27	0.47	-4.33	-4.99	11.41	7.80	
3.18	-1.50	-9.08	-1.32	0.50	-4.34	-5.16	11.35	7.84	
3.32	-1.16	-9.01	-1.36	0.49	-4.34	-5.27	11.31	7.86	
3.41	-0.94	-8.97	-1.39	0.48	-4.35	-5.34	11.29	7.88	
3.47	-0.80	-8.94	-1.40	0.48	-4.35	-5.38	11.27	7.89	
3.51	-0.70	-8.93	-1.41	0.48	-4.35	-5.42	11.26	7.89	
3.65	-0.39	-9.01	-1.34	0.40	-4.35	-5.43	11.25	7.90	
3.73	-0.19	-9.07	-1.29	0.34	-4.35	-5.45	11.25	7.90	
3.79	-0.06	-9.10	-1.26	0.31	-4.35	-5.46	11.25	7.90	
3.87	0.19	-9.20	-1.22	0.26	-4.35	-5.46	11.24	7.90	
3.92	0.36	-9.26	-1.20	0.23	-4.35	-5.46	11.24	7.90	
3.95	0.47	-9.30	-1.18	0.20	-4.35	-5.47	11.24	7.90	
3.98	0.54	-9.32	-1.17	0.19	-4.35	-5.47	11.24	7.90	
4.03	0.81	-9.30	-1.17	0.14	-4.35	-5.47	11.24	7.91	
4.06	0.99	-9.28	-1.17	0.12	-4.35	-5.47	11.24	7.91	
4.08	1.11	-9.27	-1.17	0.10	-4.35	-5.47	11.24	7.91	
4.10	1.18	-9.27	-1.17	0.09	-4.35	-5.47	11.24	7.91	
3.97	1.50	-9.22	-1.17	0.07	-4.35	-7.96	5.66	7.04	
3.88	1.71	-9.18	-1.17	0.05	-4.35	-9.58	2.04	6.48	
3.83	1.85	-9.16	-1.17	0.04	-4.35	-10.63	-0.32	6.12	
3.51	1.92	-9.11	-1.06	0.01	-4.27	-11.31	-1.85	5.88	
3.31	1.96	-9.07	-0.99	-0.01	-4.22	-11.76	-2.84	5.72	
3.17	1.99	-9.05	-0.94	-0.02	-4.19	-12.05	-3.49	5.62	
3.09	2.01	-9.03	-0.91	-0.03	-4.17	-12.23	-3.91	5.56	
3.08	2.18	-8.98	-0.82	-0.03	-3.84	-12.36	-4.19	5.52	
3.07	2.30	-8.94	-0.76	-0.04	-3.63	-12.43	-4.36	5.49	
3.07	2.37	-8.92	-0.72	-0.04	-3.50	-12.49	-4.48	5.47	
3.07	2.42	-8.90	-0.69	-0.04	-3.41	-12.52	-4.55	5.46	
3.00	2.56	-8.86	-0.64	-0.02	-3.24	-12.54	-4.60	5.45	
2.96	2.66	-8.84	-0.60	-0.02	-3.13	-12.56	-4.63	5.45	
2.93	2.72	-8.82	-0.58	-0.01	-3.06	-12.57	-4.65	5.44	
2.86	2.84	-8.85	-0.50	-0.01	-2.79	-12.57	-4.67	5.44	
2.82	2.93	-8.86	-0.46	-0.01	-2.61	-12.57	-4.68	5.44	
2.79	2.98	-8.88	-0.42	-0.01	-2.49	-12.58	-4.68	5.44	
2.77	3.01	-8.88	-0.40	-0.01	-2.41	-12.58	-4.69	5.44	
2.62	3.15	-8.82	-0.34	-0.02	-2.15	-12.58	-4.69	5.44	
2.52	3.24	-8.79	-0.31	-0.03	-1.97	-12.58	-4.69	5.44	
2.45	3.30	-8.76	-0.28	-0.03	-1.86	-12.58	-4.69	5.44	
2.48	3.34	-8.78	-0.21	-0.02	-1.53	-10.90	-7.75	6.19	
2.50	3.37	-8.79	-0.16	-0.02	-1.32	-9.81	-9.73	6.68	
2.51	3.38	-8.79	-0.13	-0.01	-1.18	-9.10	-11.02	7.00	
2.52	3.39	-8.80	-0.11	-0.01	-1.09	-8.64	-11.86	7.21	
2.61	3.43	-8.80	-0.10	-0.01	-1.00	-8.34	-12.41	7.35	
2.67	3.46	-8.81	-0.10	-0.00	-0.95	-8.14	-12.76	7.43	
2.72	3.47	-8.81	-0.10	-0.00	-0.91	-8.02	-12.99	7.49	
2.74	3.48	-8.81	-0.09	0.00	-0.89	-7.94	-13.14	7.53	
2.70	3.47	-8.80	-0.12	-0.00	-1.02	-7.88	-13.24	7.55	
2.67	3.46	-8.80	-0.13	-0.00	-1.11	-7.85	-13.30	7.57	
2.65	3.45	-8.80	-0.14	-0.00	-1.17	-7.82	-13.34	7.58	
2.54	3.51	-8.79	-0.16	0.00	-1.24	-7.81	-13.37	7.58	
2.48	3.55	-8.78	-0.17	0.01	-1.29	-7.80	-13.39	7.59	
2.43	3.57	-8.77	-0.17	0.01	-1.32	-7.79	-13.40	7.59	
2.41	3.59	-8.77	-0.18	0.01	-1.34	-7.79	-13.41	7.59	
2.38	3.61	-8.81	-0.17	0.02	-1.33	-7.79	-13.41	7.59	
2.37	3.63	-8.84	-0.16	0.02	-1.33	-7.79	-13.41	7.60	
2.36	3.64	-8.86	-0.15	0.02	-1.33	-7.78	-13.42	7.60	
2.35	3.65	-8.87	-0.15	0.02	-1.33	-7.78	-13.42	7.60	
2.31	3.64	-8.95	-0.13	0.02	-1.25	-7.78	-13.42	7.60	
2.28	3.63	-9.00	-0.11	0.01	-1.20	-7.78	-13.42	7.60	
2.26	3.62	-9.03	-0.11	0.01	-1.17	-7.78	-13.42	7.60	
2.21	3.62	-9.08	-0.08	-0.00	-0.97	-7.22	-14.35	7.27	
2.18	3.62	-9.12	-0.06	-0.01	-0.84	-6.86	-14.95	7.06	
2.17	3.62	-9.14	-0.04	-0.02	-0.76	-6.62	-15.34	6.93	
2.15	3.61	-9.16	-0.03	-0.02	-0.70	-6.47	-15.60	6.84	
2.15	3.63	-9.09	-0.01	-0.02	-0.49	-6.37	-15.77	6.78	
2.15	3.63	-9.05	0.00	-0.03	-0.35	-6.30	-15.87	6.74	
2.15	3.64	-9.02	0.01	-0.03	-0.26	-6.26	-15.94	6.72	
2.14	3.64	-9.01	0.02	-0.03	-0.20	-6.23	-15.99	6.70	
2.10	3.66	-8.96	0.06	-0.02	-0.02	-6.22	-16.02	6.69	
2.08	3.67	-8.93	0.08	-0.02	0.10	-6.20	-16.04	6.68	
2.06	3.68	-8.91	0.10	-0.01	0.17	-6.20	-16.05	6.68	
1.99	3.62	-8.86	0.16	0.00	0.44	-6.19	-16.06	6.68	
1.94	3.58	-8.82	0.19	0.01	0.61	-6.19	-16.06	6.67	
1.90	3.55	-8.80	0.22	0.02	0.73	-6.19	-16.07	6.67	
1.88	3.53	-8.79	0.23	0.02	0.80	-6.18	-16.07	6.67	
1.81	3.38	-8.75	0.31	0.05	1.28	-6.18	-16.07	6.67	
1.76	3.28	-8.72	0.36	0.07	1.58	-6.18	-16.07	6.67	
1.72	3.21	-8.71	0.40	0.08	1.78	-6.18	-16.07	6.67	
1.70	3.17	-8.70	0.42	0.09	1.91	-6.18	-16.07	6.67	
1.88	3.10	-8.70	0.53	0.13	2.68	-6.18	-16.07	6.67	
2.00	3.06	-8.70	0.61	0.15	3.18	-6.18	-16.07	6.67	
2.07	3.03	-8.71	0.65	0.16	3.51	-6.18	-16.07	6.67	
2.45	2.89	-8.76	0.82	0.18	0.76	-8.05	-13.42	6.24	
2.70	2.80	-8.79	0.93	0.19	-1.03	-9.26	-11.69	5.96	
2.86	2.74	-8.82	1.01	0.20	-2.20	-10.05	-10.57	5.78	
2.97	2.70	-8.83	1.05	0.21	-2.95	-10.56	-9.84	5.66	
3.40	2.51	-8.92	1.17	0.18	-3.44	-10.90	-9.37	5.58	
3.68	2.38	-8.98	1.24	0.17	-3.76	-11.11	-9.06	5.53	
3.86	2.30	-9.02	1.29	0.15	-3.97	-11.25	-8.86	5.50	
4.13	1.91	-9.09	1.32	0.07	-4.10	-11.35	-8.73	5.48	
4.31	1.66	-9.13	1.33	0.02	-4.19	-11.41	-8.64	5.46	
4.42	1.50	-9.16	1.35	-0.02	-4.25	-11.44	-8.59	5.45	
4.50	1.39	-9.18	1.35	-0.04	-4.29	-11.47	-8.55	5.45	
4.40	1.26	-9.09	1.28	-0.12	-4.31	-11.49	-8.53	5.44	
4.34	1.18	-9.03	1.23	-0.17	-4.32	-11.50	-8.52	5.44	
4.30	1.13	-8.99	1.20	-0.21	-4.34	-11.50	-8.51	5.44	
4.27	1.09	-8.97	1.18	-0.23	-4.34	-11.51	-8.50	5.44	
4.19	0.79	-9.00	1.10	-0.26	-4.35	-11.51	-8.49	5.44	
4.13	0.60	-9.02	1.05	-0.28	-4.35	-11.51	-8.49	5.44	
4.10	0.47	-9.03	1.01	-0.29	-4.35	-11.51	-8.49	5.44	
3.95	0.20	-9.10	0.97	-0.31	-4.35	-11.51	-8.49	5.44	
3.85	0.02	-9.15	0.94	-0.32	-4.35	-11.51	-8.49	5.44	
3.79	-0.09	-9.18	0.92	-0.33	-4.35	-11.51	-8.49	5.44	
3.75	-0.17	-9.19	0.90	-0.34	-4.35	-11.52	-8.49	5.44	
3.64	-0.41	-9.21	0.82	-0.32	-1.58	-11.52	-8.49	5.44	
3.56	-0.56	-9.22	0.76	-0.30	0.22	-11.52	-8.49	5.44	
3.52	-0.66	-9.22	0.72	-0.29	1.39	-11.52	-8.49	5.44	
3.49	-0.72	-9.22	0.70	-0.28	2.15	-11.52	-8.49	5.44	
3.47	-0.78	-9.25	0.65	-0.25	2.49	-10.52	-2.91	5.65	
3.46	-0.81	-9.27	0.62	-0.23	2.71	-9.87	0.71	5.79	
3.45	-0.83	-9.28	0.60	-0.22	2.86	-9.45	3.07	5.89	
3.42	-0.95	-9.26	0.58	-0.23	2.81	-9.18	4.60	5.94	
3.40	-1.03	-9.25	0.57	-0.25	2.78	-9.00	5.60	5.98	
3.38	-1.08	-9.24	0.56	-0.25	2.75	-8.89	6.24	6.01	
3.37	-1.11	-9.24	0.56	-0.26	2.74	-8.81	6.67	6.02	
3.26	-1.24	-9.27	0.56	-0.30	2.59	-8.76	6.94	6.03	
3.18	-1.32	-9.29	0.56	-0.33	2.49	-8.73	7.12	6.04	
3.14	-1.37	-9.30	0.56	-0.34	2.43	-8.71	7.23	6.05	
3.11	-1.41	-9.31	0.56	-0.36	2.39	-8.70	7.31	6.05	
2.97	-1.60	-9.34	0.54	-0.33	2.18	-8.69	7.36	6.05	
2.88	-1.73	-9.36	0.53	-0.32	2.04	-8.68	7.39	6.05	
2.83	-1.81	-9.38	0.52	-0.31	1.96	-8.68	7.41	6.05	
2.86	-1.86	-9.32	0.45	-0.26	1.81	-8.68	7.42	6.05	
2.88	-1.89	-9.28	0.41	-0.22	1.72	-8.67	7.43	6.05	
2.89	-1.91	-9.25	0.38	-0.20	1.66	-8.67	7.44	6.05	
2.90	-1.92	-9.23	0.36	-0.18	1.62	-8.67	7.44	6.05	
2.84	-1.94	-9.20	0.33	-0.18	1.60	-8.67	7.44	6.05	
2.81	-1.95	-9.19	0.31	-0.18	1.59	-8.67	7.44	6.05	
2.78	-1.95	-9.17	0.29	-0.19	1.58	-8.67	7.44	6.05	
2.77	-1.96	-9.17	0.28	-0.19	1.57	-8.67	7.45	6.05	
2.70	-1.99	-9.15	0.25	-0.17	1.50	-6.93	9.22	4.97	
2.66	-2.02	-9.14	0.22	-0.15	1.45	-5.80	10.37	4.27	
2.63	-2.03	-9.13	0.21	-0.15	1.41	-5.06	11.12	3.82	
2.63	-2.15	-9.15	0.20	-0.12	1.38	-4.58	11.60	3.52	
2.63	-2.22	-9.16	0.20	-0.10	1.37	-4.27	11.92	3.33	
2.63	-2.27	-9.17	0.20	-0.09	1.35	-4.07	12.12	3.20	
2.63	-2.30	-9.18	0.20	-0.08	1.34	-3.94	12.26	3.12	
2.62	-2.28	-9.16	0.21	-0.07	1.47	-3.85	12.34	3.07	
2.62	-2.27	-9.15	0.22	-0.07	1.55	-3.80	12.40	3.03	
2.62	-2.26	-9.14	0.23	-0.07	1.61	-3.76	12.44	3.01	
2.55	-2.28	-9.10	0.24	-0.09	1.69	-3.74	12.46	3.00	
2.51	-2.30	-9.07	0.25	-0.11	1.74	-3.72	12.48	2.99	
2.48	-2.31	-9.05	0.26	-0.12	1.78	-3.71	12.49	2.98	
2.47	-2.31	-9.04	0.26	-0.13	1.80	-3.71	12.49	2.98	
2.42	-1.98	-9.01	0.26	-0.11	1.81	-3.70	12.50	2.97	
2.40	-1.77	-9.00	0.25	-0.10	1.81	-3.70	12.50	2.97	
2.38	-1.63	-8.99	0.25	-0.09	1.81	-3.70	12.50	2.97	
2.37	-1.54	-8.98	0.25	-0.09	1.82	-3.70	12.50	2.97	
2.28	-1.98	-9.09	0.28	-0.04	1.55	-3.69	12.50	2.97	
2.22	-2.27	-9.15	0.30	-0.01	1.37	-3.69	12.50	2.97	
2.18	-2.46	-9.20	0.31	0.01	1.26	-3.69	12.50	2.97	
2.17	-2.60	-9.21	0.30	0.01	1.10	-2.39	13.97	3.94	
2.16	-2.68	-9.21	0.30	0.02	1.00	-1.54	14.91	4.57	
2.15	-2.74	-9.21	0.30	0.02	0.93	-0.99	15.53	4.98	
2.15	-2.78	-9.22	0.29	0.02	0.88	-0.63	15.93	5.25	
2.20	-2.82	-9.17	0.28	0.01	0.82	-0.39	16.19	5.42	
2.23	-2.85	-9.13	0.27	0.01	0.78	-0.24	16.36	5.54	
2.25	-2.86	-9.11	0.27	0.00	0.76	-0.14	16.47	5.61	
2.27	-2.88	-9.10	0.27	-0.00	0.74	-0.08	16.55	5.66	
2.05	-3.75	-9.17	0.21	-0.07	0.95	-0.04	16.59	5.69	
1.91	-4.32	-9.21	0.18	-0.11	1.08	-0.01	16.62	5.71	
1.82	-4.69	-9.24	0.15	-0.14	1.16	0.01	16.64	5.72	
1.76	-3.83	-9.04	0.07	-0.14	1.41	0.02	16.65	5.73	
1.72	-3.26	-8.91	0.01	-0.14	1.57	0.03	16.66	5.74	
1.69	-2.90	-8.83	-0.02	-0.14	1.68	0.03	16.67	5.74	
1.67	-2.66	-8.78	-0.05	-0.13	1.75	0.03	16.67	5.74	
1.79	-2.70	-8.90	-0.03	-0.08	1.36	0.04	16.67	5.74	
1.87	-2.73	-8.99	-0.02	-0.05	1.11	0.04	16.68	5.74	
1.91	-2.75	-9.04	-0.02	-0.02	0.94	0.04	16.68	5.74	
1.95	-2.76	-9.08	-0.01	-0.01	0.84	0.04	16.68	5.75	
1.89	-2.91	-9.13	0.01	-0.03	0.71	0.04	16.68	5.75	
1.85	-3.01	-9.17	0.02	-0.04	0.62	0.04	16.68	5.75	
1.83	-3.08	-9.19	0.03	-0.05	0.57	0.04	16.68	5.75	
1.73	-3.03	-9.20	0.05	-0.07	0.59	0.04	16.68	5.75	
1.67	-3.01	-9.21	0.06	-0.09	0.61	0.04	16.68	5.75	
1.63	-2.99	-9.22	0.06	-0.10	0.62	0.04	16.68	5.75	
1.60	-2.98	-9.22	0.07	-0.11	0.63	0.04	16.68	5.75	
1.58	-3.06	-9.22	0.08	-0.08	0.57	1.72	17.34	5.42	
1.57	-3.11	-9.22	0.09	-0.07	0.53	2.81	17.77	5.21	
1.57	-3.14	-9.22	0.10	-0.06	0.50	3.52	18.05	5.07	
1.57	-3.16	-9.22	0.10	-0.05	0.48	3.98	18.24	4.99	
1.59	-3.13	-9.17	0.09	-0.03	0.52	4.28	18.35	4.93	
1.61	-3.10	-9.14	0.08	-0.01	0.54	4.48	18.43	4.89	
1.63	-3.08	-9.12	0.07	-0.01	0.56	4.60	18.48	4.87	
1.64	-3.17	-9.13	0.07	0.01	0.59	4.69	18.51	4.85	
1.65	-3.22	-9.15	0.07	0.02	0.61	4.74	18.54	4.84	
1.66	-3.26	-9.15	0.06	0.02	0.62	4.78	18.55	4.83	
1.66	-3.28	-9.16	0.06	0.03	0.63	4.80	18.56	4.83	
1.63	-2.63	-9.15	-0.03	-0.03	1.03	4.81	18.56	4.83	
1.60	-2.22	-9.15	-0.08	-0.06	1.30	4.82	18.57	4.82	
1.59	-1.94	-9.15	-0.12	-0.08	1.47	4.83	18.57	4.82	
1.57	-1.77	-9.14	-0.15	-0.10	1.58	4.83	18.57	4.82	
1.57	-2.21	-9.15	-0.08	-0.05	1.23	4.83	18.57	4.82	
1.56	-2.50	-9.16	-0.03	-0.01	1.01	4.84	18.57	4.82	
1.56	-2.69	-9.16	-0.00	0.01	0.86	4.84	18.57	4.82	
1.55	-2.87	-9.13	0.02	0.03	0.69	4.84	18.57	4.82	
1.54	-2.98	-9.12	0.04	0.04	0.58	4.84	18.57	4.82	
1.53	-3.06	-9.10	0.05	0.05	0.51	4.84	18.57	4.82	
1.53	-3.11	-9.10	0.06	0.05	0.46	4.84	18.57	4.82	
1.43	-3.08	-9.12	0.05	0.04	0.53	5.77	19.06	4.28	
1.36	-3.06	-9.14	0.05	0.02	0.58	6.38	19.38	3.93	
1.32	-3.04	-9.15	0.05	0.02	0.61	6.77	19.58	3.70	
1.33	-3.08	-9.12	0.05	0.02	0.56	7.03	19.72	3.55	
1.34	-3.10	-9.10	0.05	0.03	0.52	7.20	19.80	3.46	
1.35	-3.12	-9.09	0.05	0.03	0.50	7.31	19.86	3.39	
1.35	-3.13	-9.08	0.05	0.04	0.49	7.38	19.90	3.35	
1.21	-3.56	-9.12	0.04	0.02	0.43	7.42	19.92	3.33	
1.12	-3.85	-9.15	0.03	0.02	0.39	7.45	19.94	3.31	
1.06	-4.03	-9.17	0.03	0.01	0.36	7.47	19.95	3.30	
1.02	-4.15	-9.18	0.03	0.01	0.35	7.48	19.95	3.29	
1.09	-3.72	-9.11	0.00	0.00	0.42	7.49	19.96	3.29	
1.13	-3.44	-9.07	-0.01	0.00	0.46	7.50	19.96	3.28	
1.15	-3.26	-9.04	-0.02	-0.00	0.49	7.50	19.96	3.28	
1.17	-3.20	-9.07	-0.02	0.02	0.38	7.50	19.96	3.28	
1.18	-3.17	-9.10	-0.01	0.03	0.30	7.50	19.96	3.28	
1.18	-3.15	-9.11	-0.01	0.03	0.25	7.50	19.97	3.28	
1.19	-3.13	-9.12	-0.01	0.04	0.22	7.51	19.97	3.28	
1.20	-3.18	-9.16	-0.01	0.05	0.14	7.51	19.97	3.28	
1.20	-3.21	-9.18	-0.01	0.06	0.09	7.51	19.97	3.28	
1.21	-3.22	-9.19	-0.01	0.07	0.06	7.51	19.97	3.28	
1.21	-3.24	-9.20	-0.01	0.07	0.03	7.51	19.97	3.28	
1.25	-3.25	-9.25	-0.02	0.08	-0.01	7.20	19.83	2.52	
1.28	-3.25	-9.27	-0.03	0.09	-0.04	6.99	19.75	2.03	
1.29	-3.26	-9.29	-0.03	0.10	-0.06	6.86	19.69	1.71	
1.29	-3.23	-9.25	-0.06	0.09	-0.11	6.78	19.65	1.50	
1.29	-3.22	-9.23	-0.08	0.08	-0.15	6.72	19.63	1.37	
1.29	-3.21	-9.21	-0.09	0.08	-0.17	6.68	19.62	1.28	
1.29	-3.20	-9.20	-0.09	0.08	-0.18	6.66	19.61	1.22	
1.30	-3.15	-9.21	-0.12	0.07	-0.25	6.65	19.60	1.19	
1.31	-3.12	-9.21	-0.14	0.06	-0.29	6.64	19.59	1.16	
1.31	-3.10	-9.21	-0.15	0.06	-0.32	6.63	19.59	1.15	
1.32	-3.09	-9.21	-0.16	0.06	-0.34	6.63	19.59	1.14	
1.29	-2.79	-9.11	-0.19	0.07	-0.48	6.62	19.59	1.13	
1.27	-2.60	-9.04	-0.20	0.07	-0.57	6.62	19.59	1.13	
1.25	-2.47	-9.00	-0.21	0.08	-0.63	6.62	19.59	1.12	
1.46	-2.16	-8.96	-0.21	0.14	-1.17	6.62	19.59	1.12	
1.60	-1.96	-8.93	-0.21	0.18	-1.52	6.62	19.59	1.12	
1.69	-1.83	-8.91	-0.21	0.20	-1.75	6.62	19.59	1.12	
1.75	-1.74	-8.90	-0.21	0.22	-1.90	6.62	19.59	1.12	
1.89	-1.82	-8.84	-0.25	0.26	-2.76	6.62	19.59	1.12	
1.98	-1.87	-8.81	-0.28	0.29	-3.32	6.62	19.59	1.12	
2.04	-1.91	-8.79	-0.30	0.31	-3.68	6.62	19.59	1.12	
2.07	-1.93	-8.77	-0.31	0.32	-3.92	6.62	19.59	1.12	
2.43	-2.36	-8.88	-0.32	0.27	-4.07	4.50	18.17	1.98	
2.66	-2.65	-8.95	-0.33	0.24	-4.17	3.13	17.25	2.54	
2.81	-2.83	-9.00	-0.33	0.22	-4.23	2.23	16.65	2.91	
2.58	-2.82	-8.93	-0.28	0.10	-4.28	1.65	16.26	3.15	
2.43	-2.81	-8.88	-0.25	0.02	-4.30	1.27	16.01	3.30	
2.33	-2.81	-8.85	-0.23	-0.04	-4.32	1.03	15.85	3.40	
2.27	-2.81	-8.83	-0.21	-0.07	-4.33	0.87	15.74	3.47	
2.49	-2.71	-9.00	-0.27	0.06	-4.34	0.77	15.67	3.51	
2.64	-2.65	-9.11	-0.30	0.14	-4.34	0.70	15.62	3.54	
2.73	-2.61	-9.18	-0.33	0.19	-4.35	0.65	15.59	3.55	
3.03	-2.31	-9.19	-0.44	0.26	-4.35	0.63	15.58	3.57	
3.23	-2.11	-9.20	-0.52	0.31	-4.35	0.61	15.56	3.57	
3.35	-1.98	-9.20	-0.57	0.34	-4.35	0.60	15.55	3.58	
3.43	-1.90	-9.21	-0.60	0.36	-4.35	0.59	15.55	3.58	
3.37	-1.76	-9.22	-0.64	0.36	-4.16	0.58	15.55	3.58	
3.33	-1.68	-9.23	-0.67	0.35	-4.03	0.58	15.54	3.58	
3.30	-1.62	-9.23	-0.68	0.35	-3.95	0.58	15.54	3.59	
3.28	-1.58	-9.24	-0.70	0.35	-3.90	0.58	15.54	3.59	
3.37	-1.30	-9.19	-0.69	0.33	-3.66	0.57	15.54	3.59	
3.42	-1.12	-9.16	-0.69	0.32	-3.50	0.57	15.54	3.59	
3.46	-1.00	-9.14	-0.69	0.31	-3.40	0.57	15.54	3.59	
3.61	-0.67	-9.17	-0.69	0.30	-3.32	0.57	15.54	3.59	
3.70	-0.45	-9.19	-0.70	0.29	-3.27	0.57	15.54	3.59	
3.76	-0.31	-9.20	-0.70	0.29	-3.24	0.57	15.54	3.59	
3.80	-0.22	-9.20	-0.70	0.29	-3.22	0.57	15.54	3.59	
3.73	-0.30	-9.20	-0.66	0.26	-3.17	-3.47	11.51	4.77	
3.68	-0.35	-9.21	-0.63	0.24	-3.13	-6.10	8.89	5.55	
3.65	-0.38	-9.21	-0.61	0.23	-3.11	-7.81	7.19	6.05	
3.63	-0.40	-9.21	-0.60	0.22	-3.10	-8.92	6.09	6.37	
3.66	-0.37	-9.28	-0.58	0.22	-2.92	-9.64	5.37	6.59	
3.68	-0.35	-9.32	-0.57	0.22	-2.80	-10.11	4.90	6.72	
3.69	-0.34	-9.35	-0.57	0.21	-2.72	-10.42	4.60	6.81	
3.74	-0.17	-9.36	-0.65	0.23	-2.79	-10.61	4.40	6.87	
3.78	-0.06	-9.37	-0.70	0.25	-2.84	-10.74	4.27	6.91	
3.80	0.01	-9.37	-0.73	0.25	-2.87	-10.83	4.19	6.93	
3.82	0.05	-9.38	-0.75	0.26	-2.88	-10.88	4.13	6.95	
3.84	0.33	-9.23	-0.83	0.25	-3.06	-10.92	4.10	6.96	
3.85	0.52	-9.13	-0.88	0.25	-3.17	-10.94	4.07	6.97	
3.86	0.63	-9.06	-0.92	0.25	-3.24	-10.95	4.06	6.97	
3.86	0.71	-9.02	-0.94	0.25	-3.29	-10.96	4.05	6.97	
3.82	0.91	-8.98	-0.93	0.22	-3.32	-10.97	4.04	6.98	
3.78	1.04	-8.96	-0.92	0.20	-3.33	-10.97	4.04	6.98	
3.76	1.12	-8.95	-0.92	0.19	-3.34	-10.98	4.04	6.98	
3.69	1.30	-8.91	-0.84	0.15	-3.15	-10.98	4.04	6.98	
3.65	1.41	-8.89	-0.78	0.12	-3.02	-10.98	4.03	6.98	
3.62	1.49	-8.88	-0.75	0.10	-2.94	-10.98	4.03	6.98	
3.60	1.53	-8.87	-0.73	0.09	-2.89	-10.98	4.03	6.98	
3.46	1.72	-8.88	-0.66	0.08	-2.68	-11.04	0.62	6.66	
3.36	1.85	-8.89	-0.62	0.08	-2.54	-11.08	-1.59	6.45	
3.30	1.92	-8.89	-0.59	0.07	-2.45	-11.11	-3.03	6.31	
3.48	2.05	-8.96	-0.54	0.09	-2.33	-11.13	-3.97	6.22	
3.60	2.14	-9.00	-0.51	0.09	-2.24	-11.14	-4.58	6.16	
3.67	2.19	-9.03	-0.48	0.10	-2.19	-11.15	-4.97	6.12	
3.72	2.23	-9.05	-0.47	0.10	-2.15	-11.15	-5.23	6.10	
3.60	2.31	-9.01	-0.45	0.07	-2.28	-11.15	-5.39	6.08	
3.52	2.36	-8.98	-0.44	0.05	-2.36	-11.16	-5.50	6.07	
3.46	2.40	-8.97	-0.43	0.04	-2.41	-11.16	-5.57	6.07	
3.43	2.42	-8.96	-0.43	0.03	-2.44	-11.16	-5.62	6.06	
3.34	2.42	-8.96	-0.37	0.01	-2.29	-11.16	-5.65	6.06	
3.29	2.41	-8.96	-0.33	-0.01	-2.18	-11.16	-5.67	6.06	
3.25	2.41	-8.96	-0.31	-0.01	-2.12	-11.16	-5.68	6.06	
3.17	2.50	-8.93	-0.25	-0.01	-1.88	-11.16	-5.69	6.06	
3.12	2.55	-8.91	-0.21	-0.01	-1.72	-11.16	-5.70	6.06	
3.09	2.58	-8.89	-0.19	-0.01	-1.62	-11.16	-5.70	6.06	
3.07	2.61	-8.88	-0.17	-0.01	-1.56	-11.16	-5.70	6.06	
3.21	2.56	-8.91	-0.10	-0.01	-1.29	-11.16	-5.70	6.05	
3.30	2.53	-8.93	-0.05	-0.01	-1.12	-11.16	-5.70	6.05	
3.36	2.51	-8.95	-0.02	-0.01	-1.01	-11.16	-5.70	6.05	
3.40	2.50	-8.96	0.00	-0.00	-0.94	-11.16	-5.70	6.05	
3.32	2.60	-8.97	-0.05	0.00	-1.05	-10.91	-7.03	5.41	
3.28	2.67	-8.99	-0.08	0.01	-1.13	-10.75	-7.90	4.99	
3.25	2.71	-8.99	-0.10	0.01	-1.17	-10.64	-8.46	4.71	
3.23	2.87	-8.99	-0.14	0.00	-1.32	-10.58	-8.82	4.53	
3.22	2.98	-8.99	-0.17	-0.00	-1.41	-10.53	-9.06	4.42	
3.21	3.05	-8.99	-0.19	-0.01	-1.47	-10.50	-9.21	4.34	
3.21	3.09	-8.98	-0.20	-0.01	-1.51	-10.48	-9.31	4.29	
3.06	3.01	-8.94	-0.17	-0.02	-1.48	-10.47	-9.38	4.26	
2.97	2.95	-8.92	-0.16	-0.03	-1.46	-10.46	-9.42	4.24	
2.91	2.92	-8.90	-0.15	-0.04	-1.45	-10.46	-9.45	4.23	
2.87	2.89	-8.89	-0.15	-0.04	-1.44	-10.46	-9.47	4.22	
2.83	2.88	-8.91	-0.11	-0.03	-1.25	-10.45	-9.48	4.21	
2.81	2.87	-8.93	-0.09	-0.02	-1.12	-10.45	-9.48	4.21	
2.80	2.86	-8.94	-0.08	-0.02	-1.04	-10.45	-9.49	4.21	
2.76	2.90	-8.91	-0.04	-0.01	-0.79	-10.45	-9.49	4.21	
2.73	2.93	-8.88	-0.01	-0.01	-0.62	-10.45	-9.49	4.21	
2.71	2.94	-8.87	0.01	-0.01	-0.51	-10.45	-9.50	4.21	
2.70	2.95	-8.86	0.02	-0.01	-0.44	-10.45	-9.50	4.20	
2.74	2.92	-8.90	0.07	0.00	-0.17	-10.45	-9.50	4.20	
2.76	2.89	-8.93	0.11	0.01	0.01	-10.45	-9.50	4.20	
2.78	2.87	-8.94	0.13	0.01	0.12	-10.45	-9.50	4.20	
2.83	2.83	-8.99	0.15	0.01	0.34	-10.08	-10.38	4.85	
2.86	2.80	-9.01	0.17	0.02	0.48	-9.83	-10.96	5.27	
2.89	2.79	-9.03	0.18	0.02	0.58	-9.68	-11.33	5.55	
2.90	2.77	-9.04	0.19	0.02	0.64	-9.57	-11.58	5.72	
2.89	2.78	-9.03	0.19	0.02	0.79	-9.51	-11.73	5.84	
2.88	2.79	-9.02	0.19	0.02	0.89	-9.46	-11.84	5.92	
2.87	2.79	-9.01	0.19	0.02	0.95	-9.43	-11.90	5.96	
2.86	2.79	-9.01	0.19	0.02	0.99	-9.42	-11.95	6.00	
2.85	2.76	-8.96	0.24	0.02	1.26	-9.40	-11.98	6.02	
2.85	2.73	-8.94	0.26	0.02	1.43	-9.40	-11.99	6.03	
2.84	2.72	-8.92	0.28	0.02	1.55	-9.39	-12.01	6.04	
2.93	2.58	-8.93	0.36	0.03	1.95	-9.39	-12.01	6.04	
2.98	2.50	-8.94	0.40	0.04	2.22	-9.39	-12.02	6.05	
3.01	2.44	-8.95	0.44	0.04	2.39	-9.38	-12.02	6.05	
3.04	2.40	-8.96	0.46	0.04	2.50	-9.38	-12.02	6.05	
3.28	2.32	-8.97	0.52	0.03	2.88	-9.38	-12.03	6.05	
3.44	2.27	-8.97	0.56	0.02	3.13	-9.38	-12.03	6.05	
3.54	2.23	-8.98	0.58	0.01	3.29	-9.38	-12.03	6.05	
3.60	2.21	-8.98	0.60	0.01	3.40	-9.38	-12.03	6.05	
3.59	1.98	-8.99	0.66	-0.04	3.69	-9.38	-12.03	6.05	
3.57	1.83	-9.00	0.71	-0.06	3.88	-9.38	-12.03	6.05	
3.57	1.74	-9.01	0.73	-0.08	4.01	-9.38	-12.03	6.05	
3.62	1.40	-9.07	0.78	-0.14	1.08	-9.38	-12.03	6.05	
3.66	1.18	-9.10	0.81	-0.18	-0.82	-9.38	-12.03	6.05	
3.68	1.04	-9.13	0.83	-0.21	-2.06	-9.38	-12.03	6.05	
3.70	0.94	-9.15	0.85	-0.23	-2.86	-9.38	-12.03	6.05	
3.64	1.06	-8.86	0.81	-0.24	-3.38	-10.75	-8.40	6.27	
3.60	1.14	-8.68	0.79	-0.25	-3.72	-11.64	-6.04	6.41	
3.57	1.19	-8.56	0.78	-0.26	-3.94	-12.22	-4.51	6.50	
3.56	1.22	-8.48	0.77	-0.27	-4.09	-12.60	-3.51	6.56	
3.65	0.98	-8.59	0.79	-0.23	-4.18	-12.84	-2.86	6.60	
3.71	0.83	-8.66	0.80	-0.21	-4.24	-13.00	-2.44	6.63	
3.74	0.73	-8.70	0.81	-0.19	-4.28	-13.10	-2.17	6.64	
3.80	0.51	-8.76	0.86	-0.17	-4.31	-13.17	-1.99	6.65	
3.84	0.36	-8.80	0.90	-0.16	-4.32	-13.21	-1.87	6.66	
3.86	0.27	-8.82	0.92	-0.15	-4.33	-13.24	-1.80	6.66	
3.88	0.21	-8.84	0.93	-0.14	-4.34	-13.26	-1.75	6.67	
3.81	0.02	-8.94	0.96	-0.14	-1.35	-13.27	-1.72	6.67	
3.77	-0.09	-9.00	0.98	-0.13	0.60	-13.28	-1.70	6.67	
3.74	-0.17	-9.05	0.99	-0.13	1.86	-13.28	-1.68	6.67	
3.72	-0.22	-9.08	1.00	-0.12	2.68	-13.29	-1.67	6.67	
3.64	-0.55	-9.16	0.93	-0.11	2.92	-13.29	-1.67	6.67	
3.58	-0.77	-9.21	0.88	-0.11	3.08	-13.29	-1.67	6.67	
3.55	-0.91	-9.25	0.85	-0.10	3.18	-13.29	-1.66	6.67	
3.46	-1.12	-9.23	0.76	-0.11	3.07	-13.29	-1.66	6.67	
3.40	-1.25	-9.23	0.69	-0.12	2.99	-13.29	-1.66	6.67	
3.36	-1.34	-9.22	0.65	-0.13	2.94	-13.29	-1.66	6.67	
3.34	-1.40	-9.22	0.63	-0.13	2.91	-13.29	-1.66	6.67	
3.27	-1.51	-9.22	0.55	-0.12	2.81	-11.49	2.28	6.35	
3.23	-1.58	-9.23	0.50	-0.12	2.74	-10.32	4.84	6.14	
3.20	-1.63	-9.23	0.47	-0.12	2.70	-9.55	6.51	6.00	
3.18	-1.69	-9.17	0.40	-0.09	2.58	-9.06	7.59	5.91	
3.17	-1.73	-9.14	0.36	-0.07	2.50	-8.74	8.29	5.85	
3.16	-1.76	-9.11	0.33	-0.06	2.44	-8.53	8.75	5.82	
3.16	-1.78	-9.10	0.32	-0.05	2.41	-8.39	9.04	5.79	
3.13	-1.77	-9.09	0.29	-0.05	2.32	-8.30	9.24	5.78	
3.12	-1.77	-9.08	0.27	-0.05	2.26	-8.24	9.36	5.77	
3.11	-1.76	-9.08	0.26	-0.05	2.22	-8.21	9.44	5.76	
3.10	-1.76	-9.08	0.25	-0.05	2.20	-8.18	9.50	5.75	
3.08	-1.80	-9.07	0.24	-0.07	2.02	-8.17	9.53	5.75	
3.07	-1.82	-9.06	0.23	-0.08	1.90	-8.16	9.55	5.75	
3.06	-1.84	-9.06	0.23	-0.08	1.82	-8.15	9.57	5.75	
3.00	-1.99	-9.05	0.23	-0.10	1.69	-8.15	9.58	5.75	
2.96	-2.09	-9.04	0.24	-0.11	1.61	-8.14	9.59	5.75	
2.93	-2.15	-9.04	0.24	-0.12	1.56	-8.14	9.59	5.75	
2.92	-2.19	-9.03	0.24	-0.13	1.53	-8.14	9.59	5.75	
2.85	-2.25	-9.07	0.24	-0.12	1.55	-8.14	9.59	5.75	
2.81	-2.28	-9.10	0.24	-0.11	1.57	-8.14	9.59	5.75	
2.78	-2.31	-9.11	0.25	-0.11	1.58	-8.14	9.60	5.75	
2.76	-2.32	-9.13	0.25	-0.11	1.58	-8.14	9.60	5.75	
2.79	-2.40	-9.12	0.24	-0.10	1.65	-6.64	11.54	4.67	
2.80	-2.44	-9.11	0.24	-0.09	1.69	-5.67	12.81	3.96	
2.81	-2.47	-9.11	0.24	-0.09	1.72	-5.04	13.63	3.51	
2.78	-2.44	-9.13	0.22	-0.09	1.84	-4.63	14.17	3.21	
2.75	-2.42	-9.14	0.20	-0.09	1.92	-4.37	14.51	3.02	
2.74	-2.40	-9.15	0.19	-0.09	1.97	-4.19	14.74	2.89	
2.73	-2.39	-9.16	0.19	-0.09	2.00	-4.08	14.89	2.81	
2.60	-2.39	-9.11	0.18	-0.08	1.78	-4.01	14.98	2.76	
2.53	-2.38	-9.07	0.18	-0.07	1.64	-3.96	15.05	2.73	
2.47	-2.38	-9.05	0.18	-0.07	1.55	-3.93	15.09	2.70	
2.44	-2.38	-9.04	0.17	-0.06	1.49	-3.91	15.11	2.69	
2.35	-2.51	-9.13	0.18	-0.06	1.26	-3.90	15.13	2.68	
2.28	-2.59	-9.18	0.18	-0.05	1.11	-3.89	15.14	2.67	
2.24	-2.64	-9.22	0.18	-0.05	1.02	-3.88	15.15	2.67	
2.18	-3.70	-9.43	0.15	-0.10	1.02	-3.88	15.15	2.67	
2.13	-4.39	-9.57	0.14	-0.14	1.02	-3.88	15.15	2.66	
2.11	-4.84	-9.65	0.13	-0.16	1.02	-3.87	15.16	2.66	
2.09	-5.13	-9.71	0.12	-0.17	1.02	-3.87	15.16	2.66	
2.07	-4.05	-9.42	0.04	-0.20	1.41	-3.87	15.16	2.66	
2.06	-3.34	-9.23	-0.00	-0.21	1.66	-3.87	15.16	2.66	
2.05	-2.88	-9.10	-0.04	-0.22	1.82	-3.87	15.16	2.66	
2.04	-2.96	-9.11	0.03	-0.13	1.56	-3.87	15.16	2.66	
2.02	-3.02	-9.11	0.07	-0.07	1.39	-3.87	15.16	2.66	
2.02	-3.05	-9.12	0.09	-0.03	1.28	-3.87	15.16	2.66	
2.01	-3.07	-9.12	0.11	-0.01	1.21	-3.87	15.16	2.66	
1.96	-3.11	-9.13	0.11	-0.00	1.18	-0.88	16.05	2.88	
1.93	-3.14	-9.14	0.10	-0.00	1.15	1.06	16.62	3.02	
1.91	-3.16	-9.14	0.10	0.00	1.14	2.32	17.00	3.11	
1.89	-3.17	-9.15	0.10	0.00	1.13	3.14	17.24	3.17	
1.87	-3.01	-9.06	0.07	-0.02	1.09	3.67	17.40	3.21	
1.86	-2.91	-9.01	0.05	-0.03	1.07	4.02	17.50	3.23	
1.86	-2.85	-8.97	0.04	-0.04	1.05	4.24	17.57	3.25	
2.02	-4.05	-9.44	0.07	-0.05	0.98	4.39	17.61	3.26	
2.13	-4.84	-9.74	0.08	-0.06	0.93	4.49	17.64	3.27	
2.20	-5.35	-9.94	0.10	-0.06	0.90	4.55	17.66	3.27	
2.24	-5.68	-10.06	0.10	-0.07	0.88	4.59	17.67	3.27	
1.98	-4.50	-9.59	0.09	-0.11	1.06	4.61	17.68	3.27	
1.80	-3.73	-9.28	0.08	-0.13	1.18	4.63	17.68	3.28	
1.69	-3.23	-9.08	0.08	-0.15	1.26	4.64	17.68	3.28	
1.62	-2.90	-8.95	0.07	-0.16	1.31	4.65	17.69	3.28	
1.59	-3.02	-9.04	0.15	-0.12	1.14	4.65	17.69	3.28	
1.57	-3.10	-9.09	0.20	-0.09	1.02	4.66	17.69	3.28	
1.56	-3.15	-9.13	0.23	-0.08	0.95	4.66	17.69	3.28	
1.52	-3.18	-9.13	0.26	-0.06	0.88	4.66	17.69	3.28	
1.49	-3.20	-9.13	0.29	-0.05	0.83	4.66	17.69	3.28	
1.47	-3.21	-9.13	0.30	-0.04	0.80	4.66	17.69	3.28	
1.46	-3.22	-9.13	0.31	-0.03	0.79	4.66	17.69	3.28	
1.47	-3.24	-9.15	0.31	-0.01	0.71	5.10	18.53	2.95	
1.47	-3.26	-9.17	0.31	0.01	0.65	5.38	19.08	2.74	
1.48	-3.27	-9.18	0.31	0.02	0.62	5.56	19.43	2.61	
1.48	-3.28	-9.18	0.31	0.02	0.60	5.68	19.66	2.52	
1.51	-3.39	-9.21	0.30	0.02	0.55	5.76	19.81	2.46	
1.53	-3.46	-9.22	0.30	0.01	0.52	5.81	19.91	2.42	
1.54	-3.51	-9.23	0.30	0.01	0.50	5.85	19.97	2.40	
1.52	-3.51	-9.15	0.24	-0.00	0.47	5.87	20.02	2.38	
1.51	-3.50	-9.10	0.21	-0.01	0.44	5.88	20.04	2.37	
1.50	-3.50	-9.06	0.19	-0.02	0.43	5.89	20.06	2.37	
1.49	-3.50	-9.04	0.17	-0.02	0.42	5.90	20.07	2.36	
1.52	-3.49	-8.98	0.15	-0.02	0.40	5.90	20.08	2.36	
1.54	-3.48	-8.94	0.13	-0.02	0.39	5.90	20.08	2.36	
1.55	-3.48	-8.92	0.12	-0.02	0.38	5.90	20.09	2.36	
1.56	-3.47	-8.90	0.12	-0.02	0.37	5.90	20.09	2.35	
1.56	-3.46	-8.90	0.10	-0.03	0.36	5.91	20.09	2.35	
1.56	-3.46	-8.89	0.10	-0.03	0.36	5.91	20.09	2.35	
1.56	-3.45	-8.89	0.09	-0.04	0.35	5.91	20.09	2.35	
1.56	-3.53	-8.87	0.09	-0.05	0.35	5.91	20.09	2.35	
1.57	-3.57	-8.85	0.09	-0.05	0.35	5.91	20.09	2.35	
1.57	-3.60	-8.84	0.09	-0.06	0.35	5.91	20.09	2.35	
1.57	-3.63	-8.84	0.09	-0.06	0.35	5.91	20.09	2.35	
1.65	-3.75	-9.00	0.00	-0.17	0.76	6.40	20.62	1.49	
1.70	-3.82	-9.10	-0.06	-0.24	1.02	6.73	20.97	0.93	
1.73	-3.88	-9.17	-0.09	-0.29	1.20	6.94	21.19	0.56	
1.38	-3.62	-9.04	-0.12	-0.30	1.27	7.07	21.34	0.33	
1.14	-3.46	-8.95	-0.14	-0.30	1.31	7.16	21.43	0.17	
0.99	-3.35	-8.90	-0.15	-0.30	1.34	7.22	21.50	0.07	
0.89	-3.28	-8.86	-0.16	-0.31	1.36	7.26	21.54	0.01	
0.89	-3.36	-8.97	-0.12	-0.19	0.99	7.28	21.56	-0.04	
0.89	-3.41	-9.03	-0.09	-0.12	0.75	7.30	21.58	-0.06	
0.88	-3.45	-9.08	-0.07	-0.07	0.59	7.31	21.59	-0.08	
0.88	-3.47	-9.10	-0.06	-0.04	0.49	7.32	21.60	-0.09	
0.88	-3.49	-9.09	-0.05	-0.02	0.34	7.32	21.60	-0.10	
0.88	-3.50	-9.08	-0.05	-0.00	0.25	7.32	21.60	-0.11	
0.88	-3.50	-9.07	-0.05	0.01	0.18	7.33	21.61	-0.11	
0.92	-3.52	-9.09	-0.04	0.02	0.12	7.33	21.61	-0.11	
0.95	-3.54	-9.11	-0.04	0.03	0.08	7.33	21.61	-0.11	
0.97	-3.55	-9.12	-0.03	0.04	0.05	7.33	21.61	-0.11	
0.98	-3.55	-9.12	-0.03	0.04	0.03	7.33	21.61	-0.11	
0.97	-3.55	-9.12	-0.03	0.06	0.01	7.33	21.61	-0.11	
0.96	-3.55	-9.11	-0.02	0.07	0.00	7.33	21.61	-0.11	
0.96	-3.55	-9.11	-0.02	0.07	-0.01	7.33	21.61	-0.11	
0.96	-3.55	-9.11	-0.02	0.07	-0.01	7.33	21.61	-0.11	
1.00	-3.56	-9.05	-0.02	0.09	-0.00	8.32	21.34	0.96	
1.03	-3.57	-9.02	-0.02	0.10	0.00	8.97	21.17	1.67	
1.05	-3.58	-9.00	-0.02	0.11	0.01	9.39	21.06	2.12	
1.08	-3.57	-9.00	-0.01	0.11	0.04	9.67	20.99	2.42	
1.09	-3.56	-9.00	0.00	0.11	0.07	9.84	20.94	2.61	
1.11	-3.56	-9.00	0.01	0.11	0.08	9.96	20.91	2.74	
1.11	-3.55	-9.00	0.01	0.11	0.09	10.03	20.89	2.82	
1.19	-3.53	-8.95	0.03	0.11	0.14	10.08	20.88	2.87	
1.24	-3.52	-8.92	0.04	0.11	0.17	10.11	20.87	2.91	
1.27	-3.51	-8.90	0.05	0.11	0.19	10.13	20.86	2.93	
1.30	-3.50	-8.89	0.06	0.11	0.20	10.15	20.86	2.94	
1.28	-3.52	-8.92	0.07	0.10	0.23	10.16	20.86	2.95	
1.28	-3.53	-8.95	0.09	0.09	0.24	10.16	20.85	2.96	
1.27	-3.54	-8.96	0.10	0.08	0.26	10.17	20.85	2.96	
1.21	-3.54	-8.98	0.09	0.06	0.27	10.17	20.85	2.97	
1.17	-3.53	-8.99	0.08	0.05	0.28	10.17	20.85	2.97	
1.14	-3.53	-9.00	0.08	0.04	0.29	10.17	20.85	2.97	
1.13	-3.53	-9.01	0.08	0.03	0.29	10.17	20.85	2.97	
1.11	-3.52	-9.00	0.06	0.03	0.27	10.17	20.85	2.97	
1.10	-3.52	-8.99	0.05	0.02	0.26	10.17	20.85	2.97	
1.09	-3.51	-8.99	0.04	0.02	0.25	10.17	20.85	2.97	
1.09	-3.51	-8.98	0.04	0.02	0.24	10.17	20.85	2.97	
1.06	-3.54	-8.98	0.03	0.01	0.22	10.17	20.85	2.97	
1.04	-3.55	-8.98	0.02	0.00	0.21	10.17	20.85	2.97	
1.03	-3.57	-8.98	0.02	-0.00	0.20	10.17	20.85	2.97	
1.03	-3.58	-8.98	0.02	-0.01	0.19	9.74	20.63	2.65	
1.03	-3.60	-8.99	0.02	-0.01	0.19	9.45	20.49	2.44	
1.03	-3.60	-8.99	0.02	-0.01	0.19	9.27	20.39	2.30	
1.03	-3.61	-8.99	0.02	-0.02	0.19	9.15	20.33	2.21	
1.01	-3.60	-9.01	0.03	-0.01	0.19	9.07	20.29	2.15	
1.00	-3.60	-9.02	0.04	-0.01	0.19	9.02	20.27	2.11	
0.99	-3.60	-9.03	0.04	-0.01	0.19	8.99	20.25	2.09	
0.99	-3.59	-9.04	0.05	-0.01	0.19	8.97	20.24	2.07	
0.99	-3.60	-8.99	0.04	0.00	0.18	8.95	20.23	2.06	
0.99	-3.60	-8.96	0.04	0.01	0.17	8.95	20.23	2.06	
0.99	-3.61	-8.95	0.04	0.01	0.17	8.94	20.22	2.05	
1.00	-3.61	-8.94	0.04	0.01	0.16	8.94	20.22	2.05	
1.00	-3.61	-8.94	0.05	0.01	0.16	8.93	20.22	2.05	
1.00	-3.62	-8.94	0.05	0.01	0.16	8.93	20.22	2.05	
1.00	-3.62	-8.94	0.05	0.01	0.16	8.93	20.22	2.05	
0.97	-3.48	-8.95	0.03	0.00	0.23	8.93	20.22	2.05	
0.95	-3.39	-8.96	0.02	-0.01	0.28	8.93	20.22	2.05	
0.93	-3.33	-8.96	0.01	-0.01	0.31	8.93	20.22	2.04	
0.91	-3.27	-8.92	-0.03	-0.01	0.31	8.93	20.22	2.04	
0.89	-3.23	-8.90	-0.05	-0.01	0.31	8.93	20.22	2.04	
0.88	-3.21	-8.88	-0.06	-0.01	0.30	8.93	20.22	2.04	
0.87	-3.19	-8.87	-0.07	-0.01	0.30	8.93	20.22	2.04	
0.85	-3.35	-8.94	-0.08	0.00	0.23	9.80	20.75	1.40	
0.85	-3.45	-8.99	-0.09	0.01	0.19	10.37	21.10	0.98	
0.84	-3.52	-9.02	-0.09	0.02	0.15	10.73	21.32	0.70	
0.84	-3.57	-9.04	-0.09	0.02	0.13	10.97	21.47	0.52	
0.87	-3.54	-9.03	-0.10	0.02	0.08	11.13	21.56	0.41	
0.88	-3.53	-9.03	-0.10	0.02	0.04	11.23	21.62	0.33	
0.90	-3.52	-9.03	-0.10	0.02	0.01	11.30	21.66	0.28	
0.92	-3.50	-9.02	-0.12	0.03	-0.07	11.34	21.69	0.25	
0.94	-3.48	-9.01	-0.13	0.03	-0.12	11.37	21.70	0.23	
0.95	-3.47	-9.00	-0.14	0.04	-0.16	11.38	21.72	0.22	
0.95	-3.47	-9.00	-0.14	0.04	-0.18	11.40	21.72	0.21	
0.98	-3.42	-9.03	-0.17	0.04	-0.27	11.40	21.73	0.20	
0.99	-3.39	-9.05	-0.19	0.04	-0.34	11.41	21.73	0.20	
1.00	-3.37	-9.07	-0.20	0.04	-0.37	11.41	21.73	0.20	
1.01	-3.36	-9.08	-0.20	0.04	-0.40	11.41	21.73	0.20	
1.07	-2.90	-9.01	-0.26	0.03	-0.63	11.41	21.73	0.20	
1.11	-2.61	-8.97	-0.30	0.03	-0.77	11.42	21.74	0.19	
1.13	-2.41	-8.94	-0.32	0.03	-0.87	11.42	21.74	0.19	
1.29	-2.53	-8.94	-0.35	0.04	-1.52	11.42	21.74	0.19	
1.40	-2.60	-8.94	-0.37	0.05	-1.95	11.42	21.74	0.19	
1.46	-2.65	-8.94	-0.38	0.05	-2.22	11.42	21.74	0.19	
1.51	-2.68	-8.94	-0.39	0.05	-2.40	11.42	21.74	0.19	
1.65	-2.44	-9.03	-0.39	0.04	-3.01	9.92	21.03	0.84	
1.75	-2.29	-9.08	-0.39	0.03	-3.41	8.95	20.57	1.26	
1.81	-2.19	-9.12	-0.39	0.03	-3.67	8.32	20.27	1.54	
2.00	-2.36	-9.11	-0.37	0.06	-3.91	7.91	20.07	1.71	
2.13	-2.47	-9.10	-0.36	0.09	-4.06	7.65	19.95	1.83	
2.21	-2.54	-9.10	-0.36	0.10	-4.17	7.47	19.87	1.90	
2.26	-2.59	-9.10	-0.35	0.11	-4.23	7.36	19.81	1.95	
2.31	-2.93	-9.13	-0.26	0.09	-4.27	7.29	19.78	1.99	
2.35	-3.15	-9.15	-0.21	0.08	-4.30	7.24	19.75	2.01	
2.37	-3.30	-9.17	-0.17	0.07	-4.32	7.21	19.74	2.02	
2.39	-3.39	-9.18	-0.15	0.06	-4.33	7.19	19.73	2.03	
2.58	-3.30	-9.14	-0.06	0.02	-4.34	7.17	19.72	2.03	
2.71	-3.25	-9.12	0.00	-0.01	-4.34	7.17	19.72	2.04	
2.79	-3.21	-9.10	0.04	-0.03	-4.35	7.16	19.72	2.04	
2.78	-2.99	-9.05	0.10	-0.05	-4.25	7.16	19.72	2.04	
2.78	-2.84	-9.01	0.14	-0.06	-4.18	7.16	19.72	2.04	
2.77	-2.75	-8.98	0.16	-0.07	-4.14	7.15	19.71	2.04	
2.77	-2.69	-8.97	0.18	-0.08	-4.11	7.15	19.71	2.04	
2.83	-2.62	-9.02	0.18	-0.06	-3.94	7.15	19.71	2.04	
2.87	-2.58	-9.05	0.19	-0.05	-3.82	7.15	19.71	2.04	
2.90	-2.55	-9.07	0.19	-0.04	-3.75	7.15	19.71	2.04	
2.92	-2.53	-9.09	0.19	-0.03	-3.70	7.15	19.71	2.04	
2.97	-2.44	-9.09	0.10	0.01	-3.47	7.15	19.71	2.04	
3.01	-2.37	-9.09	0.04	0.04	-3.33	7.15	19.71	2.04	
3.03	-2.33	-9.09	-0.00	0.06	-3.23	7.15	19.71	2.04	
3.15	-1.85	-9.02	-0.12	0.11	-2.94	1.74	16.57	3.02	
3.23	-1.54	-8.97	-0.20	0.14	-2.76	-1.78	14.53	3.65	
3.28	-1.34	-8.94	-0.25	0.16	-2.64	-4.07	13.20	4.06	
3.31	-1.20	-8.92	-0.28	0.18	-2.56	-5.55	12.34	4.33	
3.44	-1.31	-8.95	-0.38	0.25	-2.70	-6.52	11.78	4.50	
3.52	-1.38	-8.98	-0.45	0.30	-2.79	-7.15	11.41	4.61	
3.57	-1.42	-8.99	-0.49	0.33	-2.85	-7.56	11.17	4.68	
3.52	-1.35	-8.99	-0.50	0.31	-2.82	-7.82	11.02	4.73	
3.49	-1.30	-8.98	-0.51	0.30	-2.80	-8.00	10.92	4.76	
3.46	-1.26	-8.98	-0.51	0.29	-2.79	-8.11	10.86	4.78	
3.45	-1.24	-8.98	-0.52	0.29	-2.78	-8.18	10.81	4.80	
3.62	-1.09	-9.12	-0.55	0.29	-2.89	-8.23	10.79	4.80	
3.73	-0.99	-9.21	-0.57	0.29	-2.95	-8.26	10.77	4.81	
3.80	-0.93	-9.27	-0.58	0.30	-3.00	-8.28	10.76	4.81	
3.85	-0.89	-9.31	-0.59	0.30	-3.03	-8.29	10.75	4.82	
3.85	-0.79	-9.27	-0.64	0.30	-3.24	-8.30	10.74	4.82	
3.86	-0.73	-9.24	-0.67	0.31	-3.38	-8.31	10.74	4.82	
3.86	-0.69	-9.22	-0.69	0.31	-3.46	-8.31	10.74	4.82	
3.89	-0.50	-9.21	-0.76	0.31	-3.55	-8.31	10.74	4.82	
3.92	-0.38	-9.21	-0.80	0.31	-3.61	-8.31	10.74	4.82	
3.93	-0.30	-9.20	-0.83	0.31	-3.65	-8.31	10.74	4.82	
3.94	-0.25	-9.20	-0.85	0.31	-3.67	-8.31	10.74	4.82	
3.95	0.00	-9.14	-0.81	0.25	-3.34	-10.37	7.15	5.14	
3.96	0.17	-9.11	-0.79	0.21	-3.11	-11.70	4.82	5.36	
3.97	0.27	-9.08	-0.78	0.18	-2.97	-12.57	3.30	5.49	
3.97	0.34	-9.07	-0.77	0.16	-2.88	-13.13	2.32	5.58	
3.93	0.46	-9.04	-0.70	0.14	-2.65	-13.50	1.68	5.64	
3.90	0.54	-9.02	-0.66	0.13	-2.50	-13.74	1.26	5.68	
3.88	0.59	-9.00	-0.64	0.12	-2.41	-13.89	0.99	5.70	
3.98	0.61	-9.04	-0.62	0.11	-2.33	-14.00	0.82	5.72	
4.04	0.62	-9.07	-0.61	0.11	-2.28	-14.06	0.70	5.73	
4.09	0.63	-9.08	-0.60	0.11	-2.25	-14.10	0.63	5.73	
4.11	0.64	-9.09	-0.59	0.11	-2.23	-14.13	0.58	5.74	
4.02	0.86	-9.03	-0.68	0.11	-2.43	-14.15	0.55	5.74	
3.96	1.00	-8.98	-0.73	0.12	-2.56	-14.16	0.53	5.74	
3.92	1.09	-8.95	-0.77	0.12	-2.64	-14.17	0.52	5.74	
3.84	1.24	-8.98	-0.76	0.10	-2.58	-14.17	0.51	5.74	
3.79	1.34	-9.00	-0.75	0.08	-2.54	-14.18	0.50	5.75	
3.76	1.40	-9.01	-0.75	0.07	-2.51	-14.18	0.50	5.75	
3.73	1.44	-9.02	-0.74	0.07	-2.50	-14.18	0.50	5.75	
3.72	1.61	-8.96	-0.71	0.05	-2.36	-14.18	0.49	5.75	
3.71	1.72	-8.92	-0.69	0.04	-2.27	-14.18	0.49	5.75	
3.70	1.79	-8.90	-0.68	0.04	-2.21	-14.18	0.49	5.75	
3.69	1.83	-8.88	-0.67	0.03	-2.17	-14.18	0.49	5.75	
3.65	1.88	-8.83	-0.63	0.03	-2.05	-13.81	-2.43	5.75	
3.62	1.91	-8.80	-0.60	0.02	-1.98	-13.57	-4.33	5.75	
3.60	1.92	-8.78	-0.58	0.02	-1.93	-13.41	-5.56	5.75	
3.69	2.01	-8.85	-0.53	0.02	-1.81	-13.31	-6.36	5.75	
3.75	2.06	-8.89	-0.49	0.02	-1.74	-13.24	-6.89	5.75	
3.79	2.10	-8.92	-0.46	0.02	-1.69	-13.20	-7.23	5.75	
3.81	2.12	-8.93	-0.45	0.01	-1.66	-13.17	-7.45	5.75	
3.66	2.24	-8.91	-0.42	-0.00	-1.71	-13.15	-7.59	5.75	
3.57	2.32	-8.90	-0.41	-0.02	-1.74	-13.14	-7.68	5.75	
3.50	2.37	-8.89	-0.40	-0.02	-1.76	-13.13	-7.74	5.75	
3.46	2.40	-8.89	-0.39	-0.03	-1.77	-13.12	-7.78	5.75	
3.47	2.50	-8.89	-0.37	-0.04	-1.71	-13.12	-7.81	5.75	
3.48	2.57	-8.89	-0.35	-0.04	-1.66	-13.12	-7.82	5.75	
3.48	2.61	-8.89	-0.34	-0.05	-1.63	-13.12	-7.83	5.75	
3.52	2.74	-8.91	-0.34	-0.05	-1.60	-13.12	-7.84	5.75	
3.54	2.82	-8.93	-0.34	-0.05	-1.57	-13.12	-7.85	5.75	
3.56	2.88	-8.94	-0.34	-0.05	-1.56	-13.12	-7.85	5.75	
3.57	2.91	-8.95	-0.34	-0.05	-1.55	-13.12	-7.85	5.75	
3.45	2.89	-8.89	-0.34	-0.07	-1.56	-13.12	-7.85	5.75	
3.38	2.88	-8.85	-0.34	-0.08	-1.57	-13.12	-7.85	5.75	
3.33	2.87	-8.82	-0.33	-0.09	-1.57	-13.12	-7.85	5.75	
3.17	2.94	-8.78	-0.33	-0.08	-1.58	-12.24	-9.62	4.88	
3.06	2.98	-8.75	-0.32	-0.08	-1.58	-11.68	-10.78	4.32	
3.00	3.01	-8.74	-0.32	-0.08	-1.58	-11.31	-11.52	3.96	
2.95	3.03	-8.72	-0.32	-0.08	-1.58	-11.07	-12.01	3.72	
2.95	3.18	-8.72	-0.28	-0.06	-1.42	-10.92	-12.33	3.56	
2.94	3.28	-8.71	-0.26	-0.05	-1.31	-10.81	-12.53	3.46	
2.94	3.35	-8.71	-0.25	-0.05	-1.24	-10.75	-12.66	3.40	
2.94	3.39	-8.71	-0.24	-0.05	-1.19	-10.71	-12.75	3.36	
2.89	3.37	-8.76	-0.19	-0.04	-1.02	-10.68	-12.81	3.33	
2.86	3.36	-8.79	-0.16	-0.04	-0.91	-10.66	-12.84	3.31	
2.84	3.36	-8.80	-0.14	-0.03	-0.83	-10.65	-12.87	3.30	
2.79	3.26	-8.85	-0.07	-0.02	-0.59	-10.64	-12.88	3.29	
2.76	3.19	-8.88	-0.02	-0.01	-0.44	-10.64	-12.89	3.29	
2.75	3.15	-8.90	0.01	-0.01	-0.34	-10.63	-12.90	3.28	
2.73	3.12	-8.91	0.02	-0.01	-0.27	-10.63	-12.91	3.28	
2.68	3.11	-8.88	0.10	0.00	0.10	-10.63	-12.91	3.28	
2.65	3.10	-8.86	0.15	0.01	0.35	-10.63	-12.91	3.28	
2.63	3.10	-8.85	0.18	0.01	0.51	-10.63	-12.91	3.28	
2.72	2.99	-8.82	0.29	0.03	1.05	-10.63	-12.91	3.28	
2.77	2.91	-8.80	0.36	0.04	1.41	-10.63	-12.91	3.28	
2.81	2.86	-8.79	0.41	0.04	1.64	-10.63	-12.91	3.28	
2.84	2.83	-8.79	0.44	0.05	1.79	-10.63	-12.91	3.28	
2.99	2.75	-8.78	0.50	0.07	2.18	-10.63	-12.91	3.28	
3.09	2.69	-8.78	0.54	0.08	2.43	-10.63	-12.91	3.28	
3.16	2.65	-8.78	0.56	0.09	2.59	-10.63	-12.91	3.28	
3.20	2.63	-8.78	0.58	0.09	2.70	-10.63	-12.91	3.28	
3.35	2.46	-8.82	0.60	0.09	2.89	-11.06	-11.98	2.95	
3.44	2.35	-8.85	0.62	0.09	3.02	-11.35	-11.38	2.74	
3.50	2.28	-8.87	0.63	0.10	3.10	-11.53	-10.99	2.61	
3.55	2.21	-8.83	0.63	0.06	3.30	-11.65	-10.73	2.52	
3.59	2.16	-8.81	0.64	0.03	3.44	-11.73	-10.57	2.46	
3.61	2.14	-8.80	0.64	0.02	3.52	-11.78	-10.46	2.42	
3.63	2.12	-8.79	0.64	0.01	3.58	-11.81	-10.39	2.40	
3.70	1.84	-8.82	0.65	-0.04	3.74	-11.83	-10.34	2.38	
3.75	1.66	-8.85	0.66	-0.07	3.84	-11.85	-10.31	2.37	
3.78	1.54	-8.86	0.66	-0.09	3.90	-11.85	-10.29	2.37	
3.82	1.19	-8.98	0.71	-0.20	1.01	-11.86	-10.28	2.36	
3.85	0.96	-9.06	0.73	-0.27	-0.87	-11.86	-10.27	2.36	
3.87	0.81	-9.10	0.75	-0.32	-2.09	-11.87	-10.27	2.36	
3.88	0.72	-9.14	0.77	-0.35	-2.88	-11.87	-10.26	2.36	
3.89	0.38	-9.32	0.86	-0.40	-3.40	-11.87	-10.26	2.35	
3.90	0.15	-9.45	0.93	-0.43	-3.73	-11.87	-10.26	2.35	
3.90	0.01	-9.52	0.97	-0.45	-3.95	-11.87	-10.26	2.35	
3.90	-0.08	-9.58	1.00	-0.46	-4.09	-11.87	-10.26	2.35	
4.08	-0.12	-9.51	1.00	-0.41	-4.18	-11.87	-10.26	2.35	
4.19	-0.14	-9.47	1.00	-0.37	-4.24	-11.87	-10.26	2.35	
4.27	-0.15	-9.45	1.00	-0.35	-4.28	-11.87	-10.26	2.35	
4.23	-0.16	-9.32	1.00	-0.30	-4.31	-11.75	-4.77	3.65	
4.20	-0.16	-9.23	1.00	-0.27	-4.32	-11.67	-1.20	4.49	
4.18	-0.17	-9.18	1.00	-0.25	-4.33	-11.61	1.12	5.04	
4.17	-0.17	-9.14	0.99	-0.23	-4.34	-11.58	2.62	5.39	
4.00	-0.52	-9.05	0.98	-0.25	-4.35	-11.56	3.60	5.63	
3.89	-0.75	-8.99	0.97	-0.26	-4.35	-11.54	4.24	5.78	
3.82	-0.89	-8.95	0.97	-0.27	-4.35	-11.53	4.65	5.87	
3.85	-1.03	-8.95	0.85	-0.22	-1.37	-11.53	4.92	5.94	
3.86	-1.12	-8.95	0.77	-0.18	0.57	-11.52	5.10	5.98	
3.87	-1.18	-8.94	0.72	-0.16	1.83	-11.52	5.21	6.00	
3.88	-1.22	-8.94	0.69	-0.15	2.65	-11.52	5.29	6.02	
3.65	-1.34	-8.88	0.61	-0.15	3.09	-11.52	5.33	6.03	
3.50	-1.42	-8.83	0.55	-0.15	3.38	-11.52	5.37	6.04	
3.41	-1.48	-8.80	0.52	-0.15	3.56	-11.52	5.39	6.05	
3.35	-1.51	-8.79	0.50	-0.15	3.69	-11.52	5.40	6.05	
3.33	-1.59	-8.86	0.42	-0.12	3.54	-11.52	5.41	6.05	
3.32	-1.64	-8.90	0.37	-0.10	3.45	-11.52	5.41	6.05	
3.31	-1.68	-8.93	0.33	-0.08	3.39	-11.52	5.42	6.05	
3.14	-1.88	-9.03	0.29	-0.06	3.17	-11.52	5.42	6.05	
3.03	-2.02	-9.09	0.26	-0.05	3.02	-11.52	5.42	6.05	
2.96	-2.11	-9.12	0.24	-0.04	2.93	-11.52	5.42	6.05	
2.92	-2.16	-9.15	0.23	-0.03	2.87	-11.52	5.42	6.05	
2.76	-2.37	-9.14	0.22	-0.01	2.73	-8.34	8.74	4.43	
2.66	-2.50	-9.14	0.21	-0.00	2.64	-6.28	10.90	3.38	
2.59	-2.59	-9.14	0.20	0.01	2.58	-4.94	12.30	2.70	
2.59	-2.65	-9.18	0.20	0.01	2.57	-4.07	13.21	2.25	
2.58	-2.69	-9.21	0.19	0.02	2.56	-3.50	13.81	1.96	
2.58	-2.72	-9.23	0.19	0.02	2.56	-3.13	14.19	1.78	
2.58	-2.74	-9.24	0.19	0.03	2.55	-2.89	14.44	1.65	
2.55	-2.19	-9.06	0.16	0.01	2.51	-2.74	14.61	1.57	
2.54	-1.83	-8.94	0.14	0.00	2.49	-2.64	14.71	1.52	
2.52	-1.59	-8.87	0.13	-0.01	2.47	-2.57	14.78	1.49	
2.52	-1.44	-8.82	0.12	-0.01	2.46	-2.53	14.82	1.47	
2.53	-1.95	-8.85	0.15	0.02	2.02	-2.50	14.85	1.45	
2.54	-2.28	-8.88	0.17	0.05	1.74	-2.48	14.87	1.44	
2.54	-2.50	-8.89	0.18	0.06	1.55	-2.47	14.88	1.44	
2.55	-2.59	-8.93	0.19	0.06	1.36	-2.46	14.89	1.43	
2.55	-2.65	-8.95	0.20	0.06	1.24	-2.46	14.90	1.43	
2.55	-2.69	-8.96	0.21	0.06	1.16	-2.46	14.90	1.43	
2.55	-2.72	-8.97	0.21	0.06	1.11	-2.45	14.90	1.43	
2.47	-2.79	-8.97	0.24	0.06	1.05	-2.45	14.90	1.43	
2.41	-2.83	-8.97	0.26	0.06	1.01	-2.45	14.91	1.43	
2.38	-2.86	-8.97	0.27	0.06	0.99	-2.45	14.91	1.43	
2.36	-2.88	-8.97	0.28	0.06	0.97	-2.45	14.91	1.43	
2.31	-3.10	-9.07	0.31	0.06	0.96	-0.96	16.15	1.00	
2.27	-3.24	-9.13	0.33	0.05	0.95	0.01	16.95	0.72	
2.25	-3.34	-9.17	0.34	0.05	0.95	0.65	17.48	0.53	
2.21	-2.82	-9.19	0.20	-0.10	1.45	1.06	17.82	0.41	
2.18	-2.48	-9.20	0.11	-0.19	1.77	1.32	18.04	0.34	
2.16	-2.26	-9.21	0.05	-0.25	1.98	1.50	18.18	0.29	
2.15	-2.12	-9.21	0.01	-0.29	2.11	1.61	18.27	0.25	
2.15	-2.51	-9.18	0.05	-0.21	1.70	1.68	18.34	0.23	
2.15	-2.77	-9.17	0.08	-0.15	1.43	1.73	18.38	0.22	
2.16	-2.93	-9.15	0.10	-0.11	1.25	1.76	18.40	0.21	
2.16	-3.04	-9.15	0.11	-0.09	1.14	1.78	18.42	0.20	
2.02	-3.11	-9.06	0.10	-0.09	0.92	1.79	18.43	0.20	
1.94	-3.16	-9.00	0.10	-0.09	0.78	1.80	18.44	0.20	
1.88	-3.19	-8.96	0.10	-0.09	0.69	1.81	18.44	0.20	
1.91	-2.99	-8.92	0.11	-0.10	0.73	1.81	18.44	0.20	
1.92	-2.86	-8.90	0.12	-0.11	0.76	1.81	18.44	0.19	
1.94	-2.77	-8.88	0.12	-0.11	0.78	1.81	18.45	0.19	
1.94	-2.71	-8.87	0.12	-0.11	0.79	1.82	18.45	0.19	
1.92	-3.83	-9.27	0.16	-0.12	0.83	1.82	18.45	0.19	
1.91	-4.56	-9.52	0.18	-0.12	0.85	1.82	18.45	0.19	
1.90	-5.03	-9.69	0.19	-0.13	0.86	1.82	18.45	0.19	
1.89	-5.33	-9.80	0.20	-0.13	0.87	1.82	18.45	0.19	
1.69	-4.65	-9.50	0.10	-0.16	1.12	1.82	18.45	0.19	
1.56	-4.20	-9.30	0.04	-0.19	1.27	1.82	18.45	0.19	
1.48	-3.92	-9.17	-0.00	-0.20	1.38	1.82	18.45	0.19	
1.50	-3.12	-9.06	-0.03	-0.18	1.49	3.44	18.89	1.06	
1.51	-2.60	-8.99	-0.04	-0.16	1.57	4.49	19.18	1.62	
1.52	-2.27	-8.94	-0.05	-0.15	1.62	5.17	19.37	1.98	
1.53	-2.05	-8.91	-0.06	-0.15	1.65	5.61	19.49	2.22	
1.56	-2.55	-8.96	0.00	-0.10	1.36	5.90	19.57	2.38	
1.58	-2.87	-8.99	0.04	-0.07	1.17	6.09	19.62	2.48	
1.59	-3.08	-9.01	0.07	-0.05	1.04	6.21	19.65	2.54	
1.60	-3.22	-9.02	0.08	-0.04	0.96	6.29	19.67	2.58	
1.49	-3.27	-8.99	0.10	-0.03	0.81	6.34	19.69	2.61	
1.42	-3.30	-8.97	0.10	-0.02	0.71	6.38	19.70	2.63	
1.38	-3.32	-8.96	0.11	-0.02	0.65	6.40	19.70	2.64	
1.37	-3.42	-8.95	0.12	-0.01	0.52	6.41	19.71	2.65	
1.36	-3.48	-8.94	0.13	-0.01	0.43	6.42	19.71	2.65	
1.36	-3.52	-8.94	0.13	-0.01	0.38	6.43	19.71	2.66	
1.35	-3.54	-8.94	0.14	-0.00	0.34	6.43	19.71	2.66	
1.33	-3.59	-8.95	0.14	-0.00	0.30	6.43	19.71	2.66	
1.31	-3.63	-8.95	0.14	-0.00	0.27	6.44	19.71	2.66	
1.29	-3.65	-8.96	0.14	-0.00	0.26	6.44	19.71	2.66	
1.30	-3.67	-8.95	0.14	-0.00	0.24	6.44	19.71	2.66	
1.30	-3.69	-8.94	0.13	-0.01	0.22	6.44	19.71	2.66	
1.30	-3.70	-8.93	0.13	-0.01	0.21	6.44	19.71	2.66	
1.31	-3.71	-8.93	0.12	-0.01	0.21	6.44	19.71	2.66	
1.29	-3.68	-8.91	0.12	-0.02	0.21	7.31	20.42	2.23	
1.28	-3.66	-8.90	0.12	-0.02	0.21	7.88	20.88	1.95	
1.28	-3.65	-8.89	0.12	-0.03	0.22	8.24	21.18	1.77	
1.27	-3.64	-8.89	0.12	-0.03	0.22	8.48	21.38	1.65	
1.27	-3.68	-8.91	0.13	-0.03	0.22	8.64	21.50	1.57	
1.26	-3.71	-8.92	0.14	-0.03	0.22	8.74	21.58	1.52	
1.26	-3.72	-8.93	0.14	-0.03	0.22	8.81	21.64	1.49	
1.25	-4.26	-9.00	0.12	-0.07	0.37	8.85	21.67	1.47	
1.25	-4.61	-9.05	0.11	-0.09	0.47	8.88	21.69	1.45	
1.24	-4.83	-9.08	0.10	-0.11	0.53	8.89	21.71	1.44	
1.24	-4.98	-9.10	0.10	-0.12	0.57	8.91	21.72	1.44	
1.13	-4.45	-9.00	0.07	-0.11	0.69	8.91	21.72	1.43	
1.06	-4.11	-8.94	0.06	-0.10	0.76	8.92	21.73	1.43	
1.02	-3.88	-8.90	0.05	-0.09	0.81	8.92	21.73	1.43	
0.99	-3.73	-8.87	0.04	-0.09	0.85	8.92	21.73	1.43	
0.97	-3.75	-8.88	0.05	-0.06	0.72	8.93	21.73	1.43	
0.95	-3.76	-8.88	0.06	-0.04	0.64	8.93	21.74	1.43	
0.94	-3.76	-8.88	0.07	-0.03	0.59	8.93	21.74	1.43	
0.90	-3.73	-8.88	0.04	-0.03	0.60	8.93	21.74	1.43	
0.87	-3.70	-8.88	0.02	-0.02	0.60	8.93	21.74	1.43	
0.85	-3.69	-8.88	0.01	-0.02	0.60	8.93	21.74	1.43	
0.83	-3.68	-8.88	0.00	-0.02	0.60	8.93	21.74	1.43	
0.84	-3.67	-8.89	-0.05	-0.02	0.72	9.86	21.87	0.89	
0.84	-3.66	-8.89	-0.08	-0.02	0.80	10.47	21.96	0.54	
0.84	-3.66	-8.89	-0.11	-0.02	0.85	10.86	22.01	0.31	
0.84	-3.65	-8.89	-0.12	-0.02	0.88	11.12	22.05	0.16	
0.86	-3.60	-8.93	-0.09	0.02	0.71	11.29	22.07	0.06	
0.87	-3.57	-8.95	-0.07	0.05	0.59	11.39	22.09	0.00	
0.88	-3.55	-8.96	-0.06	0.07	0.52	11.46	22.10	-0.04	
0.92	-3.62	-8.95	-0.04	0.08	0.39	11.51	22.10	-0.07	
0.94	-3.66	-8.94	-0.03	0.09	0.30	11.54	22.11	-0.08	
0.96	-3.69	-8.94	-0.02	0.09	0.25	11.56	22.11	-0.09	
0.97	-3.71	-8.93	-0.02	0.10	0.21	11.57	22.11	-0.10	
0.40	-6.12	-9.33	0.00	0.07	0.30	11.58	22.11	-0.11	
0.03	-7.68	-9.58	0.02	0.05	0.36	11.59	22.11	-0.11	
-0.22	-8.69	-9.75	0.03	0.03	0.40	11.59	22.11	-0.11	
-0.37	-9.35	-9.85	0.03	0.03	0.42	11.59	22.12	-0.11	
0.04	-7.09	-9.28	-0.05	-0.01	0.68	11.59	22.12	-0.11	
0.32	-5.62	-8.91	-0.11	-0.03	0.84	11.59	22.12	-0.11	
0.49	-4.67	-8.67	-0.15	-0.04	0.95	11.59	22.12	-0.11	
0.67	-4.31	-8.70	-0.07	-0.02	0.71	11.59	22.12	-0.11	
0.78	-4.07	-8.72	-0.01	0.00	0.55	11.59	22.12	-0.11	
0.85	-3.92	-8.73	0.02	0.01	0.45	11.59	22.12	-0.11	
0.90	-3.82	-8.74	0.04	0.02	0.38	11.59	22.12	-0.11	
0.85	-3.77	-8.78	0.07	0.01	0.33	11.59	22.12	-0.11	
0.82	-3.74	-8.81	0.08	-0.00	0.30	11.59	22.12	-0.11	
0.80	-3.72	-8.83	0.09	-0.01	0.28	11.60	22.12	-0.11	
0.72	-3.75	-8.92	0.11	-0.02	0.28	12.53	22.07	-0.22	
0.67	-3.77	-8.97	0.12	-0.02	0.29	13.14	22.04	-0.29	
0.64	-3.78	-9.00	0.13	-0.02	0.29	13.53	22.02	-0.34	
0.62	-3.79	-9.03	0.13	-0.03	0.29	13.79	22.01	-0.37	
0.59	-3.81	-9.05	0.10	-0.03	0.26	13.95	22.00	-0.39	
0.56	-3.83	-9.07	0.09	-0.02	0.25	14.06	22.00	-0.40	
0.55	-3.84	-9.08	0.07	-0.02	0.24	14.13	22.00	-0.41	
0.54	-3.85	-9.08	0.07	-0.02	0.23	14.18	21.99	-0.41	
0.59	-3.87	-9.08	0.03	-0.01	0.20	14.21	21.99	-0.42	
0.62	-3.88	-9.08	-0.00	-0.01	0.18	14.23	21.99	-0.42	
0.64	-3.89	-9.08	-0.02	-0.01	0.17	14.24	21.99	-0.42	
1.13	-2.77	-8.87	-0.13	-0.04	0.52	14.25	21.99	-0.42	
1.45	-2.04	-8.72	-0.19	-0.06	0.75	14.25	21.99	-0.42	
1.65	-1.57	-8.63	-0.24	-0.07	0.90	14.26	21.99	-0.42	
1.79	-1.26	-8.57	-0.27	-0.08	1.00	14.26	21.99	-0.42	
1.62	-1.50	-8.62	-0.27	-0.06	1.24	14.26	21.99	-0.42	
1.51	-1.66	-8.65	-0.26	-0.05	1.39	14.26	21.99	-0.42	
1.44	-1.76	-8.67	-0.26	-0.04	1.49	14.26	21.99	-0.42	
1.25	-2.32	-8.79	-0.22	-0.00	1.56	14.26	21.99	-0.42	
1.12	-2.69	-8.87	-0.20	0.02	1.61	14.26	21.99	-0.42	
1.04	-2.93	-8.92	-0.18	0.04	1.64	14.26	21.99	-0.42	
0.98	-3.08	-8.95	-0.17	0.05	1.66	14.26	21.99	-0.42	
0.87	-3.00	-8.92	-0.16	0.07	1.63	15.44	22.12	-0.75	
0.79	-2.95	-8.91	-0.16	0.08	1.62	16.21	22.21	-0.96	
0.74	-2.92	-8.90	-0.16	0.09	1.61	16.71	22.26	-1.09	
0.66	-3.01	-8.93	-0.13	0.10	1.28	17.04	22.30	-1.18	
0.60	-3.07	-8.96	-0.12	0.11	1.06	17.25	22.32	-1.24	
0.56	-3.11	-8.98	-0.11	0.11	0.92	17.38	22.34	-1.28	
0.54	-3.14	-8.99	-0.10	0.11	0.83	17.47	22.35	-1.30	
0.48	-3.26	-9.04	-0.10	0.12	0.49	17.53	22.36	-1.32	
0.44	-3.35	-9.08	-0.09	0.13	0.27	17.57	22.36	-1.33	
0.41	-3.40	-9.10	-0.09	0.13	0.13	17.59	22.36	-1.34	
0.39	-3.44	-9.12	-0.09	0.13	0.04	17.61	22.37	-1.34	
0.23	-3.54	-9.11	-0.14	0.12	-0.22	17.62	22.37	-1.34	
0.12	-3.61	-9.10	-0.18	0.10	-0.38	17.63	22.37	-1.35	
0.05	-3.65	-9.10	-0.20	0.10	-0.49	17.63	22.37	-1.35	
0.40	-2.79	-9.12	-0.29	0.08	-0.67	17.63	22.37	-1.35	
0.63	-2.23	-9.13	-0.34	0.06	-0.79	17.64	22.37	-1.35	
0.78	-1.87	-9.14	-0.38	0.06	-0.87	17.64	22.37	-1.35	
0.87	-1.63	-9.14	-0.41	0.05	-0.92	17.64	22.37	-1.35	
1.43	-0.74	-9.05	-0.49	0.02	-1.32	17.64	22.37	-1.35	
1.80	-0.15	-8.98	-0.55	-0.00	-1.58	17.64	22.37	-1.35	
2.03	0.23	-8.94	-0.58	-0.02	-1.75	17.64	22.37	-1.35	
1.71	-0.42	-8.66	-0.47	-0.04	-2.66	15.90	21.93	0.38	
1.50	-0.84	-8.48	-0.40	-0.05	-3.25	14.76	21.64	1.50	
1.37	-1.12	-8.37	-0.35	-0.07	-3.64	14.03	21.45	2.23	
1.28	-1.30	-8.29	-0.32	-0.07	-3.89	13.55	21.33	2.71	
1.49	-3.01	-8.96	-0.14	0.13	-4.05	13.24	21.25	3.01	
1.63	-4.12	-9.39	-0.03	0.25	-4.16	13.04	21.20	3.21	
1.72	-4.85	-9.67	0.05	0.34	-4.23	12.91	21.17	3.34	
1.94	-4.28	-9.45	0.02	0.28	-4.27	12.82	21.14	3.43	
2.07	-3.92	-9.31	-0.01	0.25	-4.30	12.76	21.13	3.48	
2.16	-3.68	-9.22	-0.02	0.23	-4.32	12.73	21.12	3.52	
2.22	-3.53	-9.16	-0.03	0.21	-4.33	12.71	21.12	3.54	
2.53	-3.63	-9.16	0.05	0.19	-4.34	12.69	21.11	3.56	
2.72	-3.70	-9.16	0.11	0.17	-4.34	12.68	21.11	3.57	
2.85	-3.75	-9.15	0.15	0.16	-4.35	12.67	21.11	3.57	
2.93	-3.77	-9.15	0.17	0.15	-4.35	12.67	21.11	3.58	
2.89	-3.51	-9.19	0.14	0.14	-4.28	12.67	21.11	3.58	
2.86	-3.33	-9.22	0.11	0.13	-4.24	12.66	21.10	3.58	
2.84	-3.22	-9.23	0.10	0.12	-4.22	12.66	21.10	3.58	
2.82	-2.98	-9.15	0.03	0.12	-4.14	12.66	21.10	3.59	
2.81	-2.83	-9.10	-0.01	0.12	-4.09	12.66	21.10	3.59	
2.80	-2.72	-9.07	-0.04	0.12	-4.06	12.66	21.10	3.59	
2.79	-2.66	-9.05	-0.06	0.11	-4.03	12.66	21.10	3.59	
2.89	-2.61	-9.04	-0.14	0.13	-4.12	5.44	17.92	3.15	
2.95	-2.57	-9.04	-0.18	0.14	-4.17	0.75	15.85	2.87	
2.99	-2.55	-9.04	-0.22	0.15	-4.21	-2.30	14.50	2.69	
3.02	-2.54	-9.04	-0.24	0.15	-4.23	-4.28	13.62	2.57	
3.38	-2.03	-9.12	-0.36	0.19	-4.24	-5.57	13.06	2.50	
3.62	-1.70	-9.18	-0.44	0.21	-4.24	-6.40	12.69	2.45	
3.78	-1.48	-9.21	-0.49	0.23	-4.24	-6.95	12.45	2.41	
3.76	-1.53	-9.13	-0.58	0.21	-4.28	-7.30	12.29	2.39	
3.75	-1.56	-9.08	-0.64	0.20	-4.31	-7.53	12.19	2.38	
3.74	-1.58	-9.05	-0.68	0.19	-4.32	-7.68	12.12	2.37	
3.73	-1.59	-9.03	-0.70	0.19	-4.33	-7.78	12.08	2.36	
3.72	-1.51	-9.06	-0.74	0.17	-4.07	-7.84	12.05	2.36	
3.71	-1.46	-9.09	-0.76	0.16	-3.91	-7.88	12.03	2.36	
3.70	-1.43	-9.10	-0.78	0.15	-3.80	-7.91	12.02	2.36	
3.69	-1.16	-9.10	-0.83	0.17	-3.70	-7.93	12.01	2.35	
3.68	-0.98	-9.09	-0.86	0.18	-3.63	-7.94	12.01	2.35	
3.67	-0.87	-9.09	-0.89	0.18	-3.59	-7.95	12.01	2.35	
3.67	-0.79	-9.09	-0.90	0.19	-3.56	-7.95	12.00	2.35	
3.71	-0.65	-9.08	-0.87	0.17	-3.45	-7.95	12.00	2.35	
3.74	-0.56	-9.07	-0.84	0.16	-3.38	-7.96	12.00	2.35	
3.76	-0.51	-9.07	-0.83	0.16	-3.34	-7.96	12.00	2.35	
3.78	-0.47	-9.06	-0.82	0.15	-3.30	-7.96	12.00	2.35	
3.83	-0.26	-9.09	-0.77	0.15	-3.21	-7.96	12.00	2.35	
3.87	-0.13	-9.10	-0.74	0.14	-3.14	-7.96	12.00	2.35	
3.89	-0.05	-9.11	-0.72	0.14	-3.10	-7.96	12.00	2.35	
3.90	0.08	-9.12	-0.75	0.13	-3.16	-9.58	7.57	3.65	
3.90	0.16	-9.13	-0.77	0.13	-3.20	-10.63	4.70	4.49	
3.91	0.22	-9.13	-0.78	0.13	-3.22	-11.31	2.83	5.04	
3.91	0.25	-9.14	-0.79	0.13	-3.24	-11.76	1.61	5.39	
3.86	0.67	-9.05	-0.83	0.10	-3.22	-12.05	0.82	5.63	
3.83	0.94	-8.99	-0.86	0.08	-3.21	-12.23	0.31	5.78	
3.81	1.12	-8.95	-0.87	0.07	-3.20	-12.36	-0.03	5.87	
3.83	1.25	-8.95	-0.80	0.05	-2.93	-12.43	-0.24	5.94	
3.85	1.34	-8.95	-0.75	0.04	-2.76	-12.49	-0.38	5.98	
3.87	1.40	-8.95	-0.72	0.03	-2.65	-12.52	-0.48	6.00	
3.87	1.44	-8.95	-0.70	0.02	-2.58	-12.54	-0.54	6.02	
3.85	1.59	-8.93	-0.65	0.02	-2.43	-12.56	-0.57	6.03	
3.83	1.69	-8.92	-0.62	0.02	-2.34	-12.57	-0.60	6.04	
3.82	1.75	-8.91	-0.60	0.02	-2.28	-12.57	-0.62	6.05	
3.81	1.79	-8.90	-0.59	0.02	-2.23	-12.57	-0.63	6.05	
3.71	1.85	-8.90	-0.53	0.02	-2.15	-12.58	-0.63	6.05	
3.65	1.89	-8.89	-0.50	0.01	-2.09	-12.58	-0.64	6.05	
3.61	1.91	-8.89	-0.47	0.01	-2.05	-12.58	-0.64	6.05	
3.64	1.99	-8.91	-0.44	-0.00	-1.98	-12.58	-0.64	6.05	
3.67	2.04	-8.92	-0.41	-0.01	-1.94	-12.58	-0.64	6.05	
3.68	2.07	-8.93	-0.40	-0.02	-1.91	-12.58	-0.65	6.05	
3.69	2.09	-8.94	-0.39	-0.02	-1.89	-12.58	-0.65	6.05	
3.55	2.12	-8.94	-0.40	-0.03	-1.94	-12.46	-3.39	6.27	
3.46	2.14	-8.94	-0.40	-0.04	-1.98	-12.38	-5.17	6.41	
3.40	2.15	-8.94	-0.40	-0.04	-2.00	-12.32	-6.33	6.50	
3.36	2.15	-8.94	-0.40	-0.05	-2.01	-12.29	-7.09	6.56	
3.31	2.20	-8.96	-0.39	-0.06	-1.90	-12.27	-7.58	6.60	
3.27	2.22	-8.98	-0.38	-0.06	-1.83	-12.25	-7.90	6.63	
3.25	2.24	-8.99	-0.37	-0.06	-1.79	-12.24	-8.10	6.64	
3.24	2.32	-8.97	-0.33	-0.07	-1.57	-12.24	-8.24	6.65	
3.23	2.37	-8.95	-0.30	-0.08	-1.42	-12.23	-8.32	6.66	
3.23	2.40	-8.94	-0.29	-0.08	-1.33	-12.23	-8.38	6.66	
3.22	2.42	-8.93	-0.28	-0.09	-1.26	-12.23	-8.42	6.67	
3.14	2.44	-8.89	-0.23	-0.08	-1.10	-12.23	-8.44	6.67	
3.09	2.46	-8.86	-0.20	-0.08	-0.99	-12.23	-8.46	6.67	
3.05	2.47	-8.84	-0.18	-0.07	-0.92	-12.23	-8.47	6.67	
3.12	2.53	-8.86	-0.13	-0.05	-0.71	-12.23	-8.47	6.67	
3.16	2.58	-8.87	-0.10	-0.04	-0.57	-12.23	-8.48	6.67	
3.19	2.61	-8.88	-0.08	-0.03	-0.49	-12.23	-8.48	6.67	
3.21	2.63	-8.88	-0.07	-0.02	-0.43	-12.23	-8.48	6.67	
3.17	2.67	-8.87	-0.06	-0.02	-0.38	-12.23	-8.48	6.67	
3.14	2.70	-8.87	-0.05	-0.02	-0.35	-12.23	-8.49	6.67	
3.12	2.71	-8.86	-0.04	-0.02	-0.33	-12.23	-8.49	6.67	
3.11	2.73	-8.86	-0.04	-0.02	-0.32	-12.23	-8.49	6.67	
3.10	2.71	-8.90	-0.00	-0.01	-0.19	-11.85	-9.28	6.89	
3.09	2.69	-8.93	0.02	-0.00	-0.10	-11.61	-9.80	7.03	
3.08	2.69	-8.95	0.04	0.00	-0.04	-11.45	-10.14	7.12	
3.07	2.63	-8.98	0.09	0.01	0.21	-11.35	-10.36	7.18	
3.06	2.59	-9.00	0.12	0.02	0.38	-11.28	-10.50	7.22	
3.05	2.56	-9.01	0.14	0.02	0.49	-11.24	-10.59	7.24	
3.04	2.54	-9.02	0.16	0.03	0.56	-11.21	-10.65	7.26	
3.08	2.46	-9.02	0.23	0.03	0.88	-11.19	-10.69	7.27	
3.11	2.40	-9.02	0.27	0.04	1.09	-11.18	-10.72	7.28	
3.13	2.36	-9.02	0.30	0.04	1.23	-11.17	-10.73	7.28	
3.22	2.29	-8.97	0.37	0.04	1.63	-11.17	-10.74	7.28	
3.28	2.24	-8.94	0.42	0.03	1.89	-11.17	-10.75	7.28	
3.31	2.21	-8.92	0.46	0.03	2.06	-11.16	-10.75	7.29	
3.34	2.19	-8.91	0.48	0.03	2.17	-11.16	-10.76	7.29	
3.43	1.97	-8.92	0.55	0.03	2.55	-11.16	-10.76	7.29	
3.48	1.83	-8.93	0.59	0.03	2.79	-11.16	-10.76	7.29	
3.52	1.74	-8.94	0.62	0.03	2.95	-11.16	-10.76	7.29	
3.54	1.68	-8.94	0.64	0.03	3.05	-11.16	-10.76	7.29	
3.70	1.60	-8.97	0.64	0.03	3.23	-11.16	-10.76	7.29	
3.81	1.55	-8.99	0.64	0.02	3.34	-11.16	-10.76	7.29	
3.87	1.52	-9.00	0.64	0.02	3.42	-11.16	-10.76	7.29	
3.73	1.27	-9.00	0.66	-0.00	3.50	-11.16	-10.76	7.29	
3.64	1.11	-9.00	0.67	-0.02	3.55	-11.16	-10.76	7.29	
3.57	1.01	-9.00	0.67	-0.03	3.59	-11.16	-10.76	7.29	
3.53	0.94	-9.00	0.68	-0.04	3.61	-11.16	-10.76	7.29	
3.72	0.85	-9.01	0.72	-0.06	3.81	-11.16	-10.76	7.29	
3.84	0.79	-9.02	0.76	-0.08	3.95	-11.16	-10.76	7.29	
3.92	0.75	-9.03	0.78	-0.09	4.03	-11.16	-10.76	7.29	
3.97	0.72	-9.03	0.79	-0.10	4.09	-11.16	-10.76	7.29	
3.96	0.63	-9.01	0.80	-0.12	4.09	-11.16	-10.76	7.29	
3.96	0.58	-9.00	0.81	-0.14	4.09	-11.16	-10.76	7.29	
3.96	0.54	-8.99	0.81	-0.15	4.08	-11.16	-10.76	7.29	
3.77	0.04	-9.06	0.88	-0.17	3.85	-11.16	-10.76	7.29	
3.65	-0.29	-9.11	0.92	-0.18	3.70	-11.16	-10.76	7.29	
3.57	-0.50	-9.14	0.95	-0.19	3.60	-11.16	-10.76	7.29	
3.52	-0.63	-9.15	0.97	-0.20	3.54	-11.16	-10.76	7.29	
3.64	-0.65	-9.23	1.01	-0.19	3.64	-11.16	-10.76	7.29	
3.72	-0.66	-9.28	1.04	-0.18	3.71	-11.16	-10.76	7.29	
3.77	-0.66	-9.31	1.06	-0.18	3.75	-11.16	-10.76	7.29	
3.72	-0.84	-9.28	1.01	-0.17	3.72	-11.16	-10.76	7.29	
3.68	-0.95	-9.26	0.99	-0.16	3.70	-11.16	-10.76	7.29	
3.66	-1.03	-9.25	0.97	-0.15	3.68	-11.16	-10.76	7.29	
3.65	-1.08	-9.24	0.96	-0.14	3.67	-11.16	-10.76	7.29	
3.63	-1.14	-9.17	0.84	-0.11	3.51	-11.16	-10.76	7.29	
3.63	-1.18	-9.12	0.77	-0.09	3.40	-11.16	-10.76	7.29	
3.62	-1.21	-9.09	0.72	-0.07	3.33	-11.16	-10.76	7.29	
3.50	-1.44	-9.09	0.61	-0.06	3.17	-10.72	-3.73	6.32	
3.42	-1.59	-9.09	0.54	-0.05	3.07	-10.44	0.85	5.69	
3.37	-1.69	-9.10	0.50	-0.05	3.01	-10.26	3.82	5.27	
3.33	-1.75	-9.10	0.47	-0.04	2.96	-10.14	5.75	5.01	
3.35	-1.80	-9.07	0.38	-0.01	2.90	-10.06	7.01	4.83	
3.37	-1.83	-9.05	0.32	0.01	2.86	-10.01	7.83	4.72	
3.38	-1.84	-9.04	0.28	0.02	2.84	-9.98	8.36	4.65	
3.38	-1.86	-9.04	0.26	0.03	2.82	-9.96	8.70	4.60	
3.32	-2.01	-9.01	0.24	0.02	2.81	-9.94	8.93	4.57	
3.27	-2.11	-8.99	0.23	0.01	2.79	-9.93	9.07	4.55	
3.24	-2.18	-8.98	0.22	0.01	2.79	-9.93	9.17	4.54	
3.16	-2.19	-8.99	0.21	0.01	2.84	-9.92	9.23	4.53	
3.10	-2.20	-9.00	0.21	0.01	2.88	-9.92	9.27	4.52	
3.06	-2.21	-9.01	0.21	0.02	2.90	-9.92	9.30	4.52	
3.04	-2.21	-9.01	0.21	0.02	2.91	-9.92	9.31	4.52	
2.99	-2.35	-9.04	0.21	0.01	2.83	-9.92	9.32	4.52	
2.95	-2.43	-9.06	0.21	-0.00	2.77	-9.92	9.33	4.51	
2.93	-2.49	-9.07	0.21	-0.01	2.74	-9.92	9.33	4.51	
2.92	-2.53	-9.08	0.21	-0.01	2.71	-9.92	9.34	4.51	
2.86	-2.62	-9.07	0.17	-0.03	2.61	-9.92	9.34	4.51	
2.82	-2.67	-9.07	0.14	-0.05	2.55	-9.92	9.34	4.51	
2.79	-2.71	-9.07	0.12	-0.06	2.50	-9.92	9.34	4.51	
2.81	-2.71	-9.07	0.09	-0.08	2.44	-6.99	11.51	3.76	
2.83	-2.70	-9.07	0.06	-0.09	2.40	-5.09	12.92	3.27	
2.84	-2.70	-9.07	0.05	-0.10	2.38	-3.85	13.84	2.95	
2.84	-2.70	-9.07	0.04	-0.10	2.36	-3.05	14.43	2.74	
2.71	-2.75	-9.02	0.02	-0.13	2.30	-2.53	14.82	2.60	
2.62	-2.79	-8.99	0.01	-0.14	2.27	-2.19	15.07	2.52	
2.57	-2.81	-8.97	0.00	-0.15	2.24	-1.97	15.24	2.46	
2.53	-2.83	-8.95	-0.00	-0.16	2.23	-1.83	15.34	2.42	
2.54	-2.77	-8.90	0.06	-0.13	1.99	-1.73	15.41	2.40	
2.54	-2.74	-8.86	0.10	-0.11	1.84	-1.67	15.46	2.38	
2.55	-2.71	-8.84	0.13	-0.10	1.74	-1.63	15.49	2.37	
2.43	-2.78	-8.90	0.23	-0.07	1.57	-1.61	15.50	2.37	
2.36	-2.82	-8.94	0.30	-0.06	1.46	-1.59	15.52	2.36	
2.31	-2.84	-8.97	0.35	-0.05	1.39	-1.58	15.53	2.36	
2.28	-2.86	-8.99	0.37	-0.04	1.34	-1.57	15.53	2.36	
2.12	-3.02	-9.06	0.42	-0.07	1.30	-1.57	15.53	2.36	
2.02	-3.12	-9.11	0.46	-0.09	1.28	-1.57	15.54	2.35	
1.95	-3.19	-9.14	0.48	-0.10	1.27	-1.56	15.54	2.35	
1.90	-3.23	-9.16	0.49	-0.11	1.26	-1.56	15.54	2.35	
1.70	-2.40	-8.86	0.37	-0.22	1.61	-1.56	15.54	2.35	
1.57	-1.86	-8.66	0.29	-0.29	1.84	-1.56	15.54	2.35	
1.49	-1.51	-8.53	0.24	-0.34	1.99	-1.56	15.54	2.35	
1.72	-2.25	-8.78	0.27	-0.23	1.85	0.87	17.00	2.03	
1.86	-2.73	-8.94	0.30	-0.16	1.77	2.44	17.95	1.82	
1.96	-3.05	-9.05	0.31	-0.11	1.71	3.47	18.57	1.68	
2.02	-3.25	-9.12	0.32	-0.09	1.67	4.14	18.97	1.59	
1.87	-3.80	-9.12	0.28	-0.08	1.54	4.57	19.23	1.53	
1.77	-4.16	-9.12	0.25	-0.08	1.45	4.85	19.40	1.50	
1.70	-4.39	-9.12	0.24	-0.08	1.39	5.03	19.51	1.47	
1.60	-3.71	-8.97	0.08	-0.14	1.69	5.15	19.58	1.46	
1.53	-3.26	-8.87	-0.02	-0.19	1.89	5.23	19.63	1.45	
1.49	-2.98	-8.81	-0.08	-0.21	2.01	5.28	19.66	1.44	
1.46	-2.79	-8.76	-0.12	-0.23	2.10	5.31	19.68	1.44	
1.45	-3.02	-8.77	0.01	-0.15	1.67	5.33	19.69	1.43	
1.44	-3.18	-8.78	0.10	-0.10	1.38	5.35	19.70	1.43	
1.44	-3.28	-8.78	0.16	-0.07	1.20	5.36	19.70	1.43	
1.44	-3.34	-8.78	0.20	-0.05	1.08	5.36	19.71	1.43	
1.34	-3.59	-8.89	0.28	-0.04	1.01	5.37	19.71	1.43	
1.28	-3.75	-8.96	0.34	-0.04	0.96	5.37	19.71	1.43	
1.24	-3.86	-9.01	0.38	-0.03	0.93	5.37	19.71	1.43	
1.06	-2.33	-8.65	0.30	-0.11	1.22	5.37	19.71	1.43	
0.95	-1.34	-8.42	0.25	-0.16	1.42	5.37	19.71	1.43	
0.87	-0.69	-8.27	0.22	-0.20	1.54	5.37	19.71	1.43	
0.83	-0.27	-8.17	0.20	-0.22	1.62	5.37	19.71	1.43	
1.21	-1.50	-8.48	0.24	-0.19	1.50	5.37	19.71	1.43	
1.46	-2.30	-8.67	0.27	-0.16	1.43	5.37	19.71	1.43	
1.62	-2.82	-8.80	0.29	-0.15	1.37	5.37	19.71	1.43	
1.13	-3.63	-8.84	0.25	-0.14	1.32	6.74	19.71	1.43	
0.81	-4.16	-8.87	0.22	-0.13	1.28	7.63	20.16	1.00	
0.60	-4.50	-8.89	0.21	-0.13	1.26	8.21	20.44	0.71	
0.47	-4.72	-8.90	0.20	-0.12	1.25	8.59	20.63	0.53	
0.68	-5.14	-8.94	0.07	-0.16	1.80	8.83	20.75	0.41	
0.81	-5.41	-8.96	-0.01	-0.18	2.17	8.99	20.83	0.34	
0.90	-5.59	-8.97	-0.07	-0.19	2.40	9.09	20.88	0.29	
0.95	-5.70	-8.99	-0.10	-0.20	2.56	9.16	20.92	0.25	
0.63	-4.81	-8.81	-0.26	-0.16	0.14	9.20	20.94	0.23	
0.42	-4.23	-8.70	-0.37	-0.13	-1.43	9.23	20.95	0.22	
0.28	-3.85	-8.62	-0.44	-0.11	-2.46	9.25	20.96	0.21	
0.46	-3.14	-8.72	-0.42	0.10	-3.12	9.26	20.97	0.20	
0.57	-2.68	-8.79	-0.41	0.23	-3.55	9.27	20.97	0.20	
0.65	-2.37	-8.83	-0.40	0.32	-3.83	9.27	20.97	0.20	
0.70	-2.18	-8.86	-0.39	0.38	-4.02	9.28	20.97	0.20	
0.72	-2.18	-8.95	-0.36	0.43	-1.99	9.28	20.98	0.20	
0.74	-2.17	-9.01	-0.34	0.46	-0.68	9.28	20.98	0.19	
0.76	-2.17	-9.05	-0.32	0.48	0.18	9.28	20.98	0.19	
0.76	-2.17	-9.07	-0.31	0.50	0.73	9.28	20.98	0.19	
0.53	-2.52	-9.08	-0.31	0.43	0.58	9.28	20.98	0.19	
0.37	-2.75	-9.08	-0.31	0.39	0.48	9.28	20.98	0.19	
0.28	-2.90	-9.08	-0.32	0.37	0.42	9.28	20.98	0.19	
0.23	-2.97	-9.09	-0.31	0.27	0.17	13.64	21.07	-0.24	
0.21	-3.02	-9.10	-0.30	0.21	0.00	16.47	21.12	-0.52	
0.19	-3.05	-9.10	-0.30	0.17	-0.10	18.31	21.16	-0.70	
0.18	-3.07	-9.11	-0.30	0.14	-0.17	19.51	21.19	-0.82	
0.08	-3.13	-9.13	-0.31	0.07	-0.43	20.28	21.20	-0.90	
0.01	-3.18	-9.15	-0.32	0.02	-0.59	20.79	21.21	-0.95	
-0.03	-3.20	-9.16	-0.33	-0.01	-0.70	21.12	21.22	-0.98	
-0.18	-3.58	-9.15	-0.38	-0.04	-1.01	21.33	21.22	-1.00	
-0.28	-3.82	-9.14	-0.42	-0.05	-1.21	21.47	21.23	-1.01	
-0.35	-3.98	-9.13	-0.44	-0.06	-1.34	21.56	21.23	-1.02	
-0.39	-4.08	-9.13	-0.46	-0.07	-1.43	21.62	21.23	-1.03	
0.03	-3.36	-9.08	-0.58	-0.02	-1.59	21.66	21.23	-1.03	
0.31	-2.89	-9.05	-0.66	0.01	-1.69	21.68	21.23	-1.04	
0.48	-2.59	-9.04	-0.71	0.03	-1.76	21.70	21.23	-1.04	
0.38	-2.84	-9.11	-0.73	0.05	-1.75	21.71	21.23	-1.04	
0.31	-3.01	-9.16	-0.75	0.07	-1.75	21.72	21.23	-1.04	
0.27	-3.12	-9.19	-0.75	0.08	-1.75	21.72	21.23	-1.04	
0.24	-3.19	-9.21	-0.76	0.09	-1.75	21.72	21.23	-1.04	
0.31	-3.29	-9.27	-0.66	0.14	-1.52	21.72	21.23	-1.04	
0.36	-3.36	-9.31	-0.60	0.17	-1.38	21.73	21.23	-1.04	
0.39	-3.40	-9.33	-0.56	0.19	-1.28	21.73	21.23	-1.04	
0.41	-3.43	-9.35	-0.53	0.20	-1.22	21.73	21.23	-1.04	
0.51	-3.23	-9.28	-0.44	0.20	-1.05	19.74	20.88	0.69	
0.57	-3.11	-9.24	-0.38	0.20	-0.95	18.44	20.65	1.81	
0.61	-3.02	-9.21	-0.34	0.20	-0.88	17.60	20.50	2.54	
0.65	-2.93	-9.22	-0.24	0.18	-0.94	17.05	20.40	3.01	
0.68	-2.87	-9.22	-0.17	0.17	-0.98	16.70	20.34	3.32	
0.70	-2.83	-9.22	-0.13	0.17	-1.00	16.47	20.30	3.52	
0.72	-2.81	-9.22	-0.10	0.16	-1.02	16.32	20.27	3.65	
0.74	-2.66	-9.15	-0.06	0.17	-1.13	16.22	20.25	3.74	
0.75	-2.56	-9.11	-0.04	0.17	-1.21	16.16	20.24	3.79	
0.76	-2.50	-9.08	-0.02	0.17	-1.25	16.12	20.23	3.83	
1.56	-1.86	-8.54	0.10	0.43	-2.34	16.09	20.23	3.85	
2.08	-1.45	-8.20	0.18	0.60	-3.04	16.07	20.22	3.87	
2.42	-1.19	-7.97	0.23	0.71	-3.50	16.06	20.22	3.88	
2.64	-1.01	-7.83	0.27	0.78	-3.80	16.05	20.22	3.88	
2.42	-3.55	-8.62	0.49	0.84	-3.99	16.05	20.22	3.89	
2.28	-5.20	-9.14	0.64	0.88	-4.12	16.05	20.22	3.89	
2.19	-6.27	-9.48	0.73	0.90	-4.20	16.04	20.22	3.89	
2.13	-6.97	-9.69	0.80	0.92	-4.26	16.04	20.22	3.89	
2.19	-5.28	-9.53	0.56	0.68	-3.87	16.04	20.22	3.89	
2.23	-4.18	-9.43	0.41	0.52	-3.62	16.04	20.22	3.89	
2.25	-3.46	-9.36	0.31	0.42	-3.46	16.04	20.22	3.89	
2.21	-3.58	-9.39	0.33	0.30	-3.19	9.88	18.76	3.79	
2.17	-3.65	-9.41	0.35	0.22	-3.01	5.88	17.81	3.72	
2.15	-3.70	-9.42	0.36	0.17	-2.89	3.27	17.19	3.67	
2.14	-3.73	-9.43	0.36	0.14	-2.82	1.58	16.79	3.64	
2.20	-3.36	-9.43	0.24	0.13	-2.54	0.48	16.53	3.62	
2.24	-3.11	-9.43	0.17	0.12	-2.35	-0.23	16.36	3.61	
2.26	-2.95	-9.43	0.12	0.11	-2.23	-0.70	16.25	3.60	
2.26	-2.70	-9.43	-0.01	0.14	-2.37	-1.00	16.18	3.60	
2.26	-2.53	-9.43	-0.09	0.16	-2.46	-1.20	16.13	3.59	
2.26	-2.42	-9.42	-0.14	0.17	-2.52	-1.32	16.10	3.59	
2.26	-2.35	-9.42	-0.18	0.18	-2.56	-1.41	16.08	3.59	
2.35	-2.23	-9.43	-0.27	0.16	-2.98	-1.46	16.07	3.59	
2.41	-2.15	-9.43	-0.33	0.15	-3.26	-1.50	16.06	3.59	
2.44	-2.10	-9.43	-0.37	0.14	-3.43	-1.52	16.06	3.59	
2.47	-2.06	-9.43	-0.40	0.13	-3.55	-1.53	16.05	3.59	
2.81	-1.99	-9.27	-0.40	0.11	-3.83	-1.54	16.05	3.59	
3.04	-1.95	-9.16	-0.41	0.10	-4.01	-1.55	16.05	3.59	
3.18	-1.92	-9.09	-0.41	0.09	-4.13	-1.55	16.05	3.59	
3.55	-1.44	-9.03	-0.27	0.04	-4.21	-1.56	16.05	3.59	
3.78	-1.13	-8.99	-0.18	0.01	-4.26	-1.56	16.05	3.59	
3.93	-0.92	-8.97	-0.12	-0.01	-4.29	-1.56	16.05	3.59	
4.03	-0.79	-8.95	-0.08	-0.02	-4.31	-1.56	16.05	3.59	
4.02	-0.85	-8.90	0.18	-0.07	-4.33	-1.56	16.05	3.59	
4.01	-0.89	-8.86	0.36	-0.10	-4.34	-1.56	16.05	3.59	
4.01	-0.91	-8.83	0.47	-0.11	-4.34	-1.56	16.05	3.59	
3.97	-1.52	-9.03	0.54	-0.08	-4.35	-4.73	13.35	4.56	
3.95	-1.92	-9.15	0.59	-0.05	-4.35	-6.80	11.59	5.19	
3.94	-2.18	-9.23	0.62	-0.04	-4.35	-8.14	10.45	5.60	
3.93	-2.34	-9.29	0.64	-0.02	-4.35	-9.01	9.71	5.87	
3.95	-2.05	-9.23	0.28	0.03	-4.35	-9.57	9.23	6.04	
3.96	-1.86	-9.19	0.05	0.07	-4.35	-9.94	8.91	6.15	
3.97	-1.74	-9.16	-0.11	0.09	-4.35	-10.18	8.71	6.23	
3.97	-1.66	-9.15	-0.21	0.10	-4.35	-10.34	8.58	6.27	
3.80	-1.63	-9.23	-0.40	0.07	-4.20	-10.44	8.49	6.31	
3.69	-1.61	-9.28	-0.52	0.05	-4.10	-10.50	8.44	6.33	
3.61	-1.59	-9.31	-0.60	0.04	-4.03	-10.55	8.40	6.34	
3.71	-0.91	-9.25	-0.75	0.03	-3.59	-10.58	8.38	6.35	
3.77	-0.47	-9.22	-0.85	0.02	-3.31	-10.59	8.36	6.35	
3.82	-0.19	-9.19	-0.91	0.01	-3.12	-10.60	8.35	6.36	
3.84	-0.00	-9.18	-0.95	0.01	-3.00	-10.61	8.34	6.36	
3.80	0.21	-9.09	-0.92	0.02	-2.89	-10.62	8.34	6.36	
3.77	0.34	-9.04	-0.90	0.02	-2.81	-10.62	8.34	6.36	
3.75	0.43	-9.00	-0.89	0.03	-2.77	-10.62	8.34	6.36	
3.73	0.49	-8.98	-0.88	0.03	-2.73	-10.62	8.33	6.36	
3.72	0.62	-8.99	-0.77	0.04	-2.61	-10.63	8.33	6.36	
3.72	0.71	-8.99	-0.70	0.05	-2.52	-10.63	8.33	6.36	
3.71	0.76	-8.99	-0.66	0.06	-2.47	-10.63	8.33	6.36	
3.69	0.75	-9.08	-0.52	0.01	-2.06	-11.37	4.70	6.79	
3.68	0.74	-9.14	-0.43	-0.02	-1.80	-11.86	2.34	7.08	
3.67	0.73	-9.18	-0.37	-0.04	-1.63	-12.17	0.81	7.26	
3.66	0.73	-9.20	-0.33	-0.05	-1.52	-12.38	-0.19	7.38	
3.65	0.90	-9.13	-0.31	-0.06	-1.20	-12.51	-0.83	7.45	
3.65	1.01	-9.08	-0.29	-0.07	-1.00	-12.60	-1.26	7.50	
3.64	1.09	-9.05	-0.28	-0.08	-0.86	-12.66	-1.53	7.54	
3.66	1.18	-9.00	-0.24	-0.07	-0.63	-12.69	-1.71	7.56	
3.67	1.25	-8.97	-0.22	-0.07	-0.48	-12.72	-1.82	7.57	
3.68	1.29	-8.95	-0.20	-0.07	-0.39	-12.73	-1.90	7.58	
3.68	1.32	-8.93	-0.19	-0.07	-0.32	-12.74	-1.95	7.59	
3.81	1.27	-9.02	-0.18	-0.03	-0.39	-12.75	-1.98	7.59	
3.89	1.23	-9.07	-0.17	-0.01	-0.44	-12.75	-2.00	7.59	
3.95	1.21	-9.11	-0.17	0.00	-0.47	-12.75	-2.01	7.59	
3.98	1.20	-9.13	-0.16	0.01	-0.49	-12.76	-2.02	7.60	
3.92	1.23	-9.14	-0.26	0.03	-0.93	-12.76	-2.03	7.60	
3.88	1.24	-9.15	-0.32	0.04	-1.22	-12.76	-2.03	7.60	
3.85	1.26	-9.15	-0.36	0.05	-1.41	-12.76	-2.03	7.60	
3.72	1.37	-9.11	-0.42	0.04	-1.67	-12.76	-2.03	7.60	
3.63	1.44	-9.09	-0.46	0.04	-1.84	-12.76	-2.04	7.60	
3.58	1.49	-9.08	-0.48	0.04	-1.96	-12.76	-2.04	7.60	
3.54	1.52	-9.07	-0.50	0.03	-2.03	-12.76	-2.04	7.60	
3.53	1.54	-9.05	-0.45	0.01	-1.82	-12.57	-3.85	7.06	
3.53	1.55	-9.04	-0.42	0.00	-1.68	-12.45	-5.03	6.71	
3.53	1.56	-9.03	-0.40	-0.01	-1.59	-12.37	-5.80	6.48	
3.53	1.56	-9.03	-0.39	-0.01	-1.54	-12.32	-6.30	6.33	
3.50	1.65	-9.00	-0.36	-0.02	-1.43	-12.29	-6.62	6.23	
3.49	1.71	-8.99	-0.35	-0.02	-1.36	-12.27	-6.83	6.17	
3.48	1.74	-8.98	-0.34	-0.02	-1.31	-12.25	-6.97	6.13	
3.43	1.77	-9.01	-0.31	-0.01	-1.24	-12.24	-7.06	6.10	
3.39	1.79	-9.03	-0.29	-0.01	-1.19	-12.24	-7.12	6.09	
3.37	1.80	-9.04	-0.28	-0.01	-1.16	-12.23	-7.15	6.08	
3.35	1.81	-9.05	-0.27	-0.01	-1.14	-12.23	-7.18	6.07	
3.34	1.94	-9.03	-0.25	-0.01	-1.01	-12.23	-7.19	6.06	
3.32	2.03	-9.01	-0.24	-0.01	-0.93	-12.23	-7.20	6.06	
3.32	2.09	-9.00	-0.23	-0.01	-0.88	-12.23	-7.21	6.06	
3.28	2.07	-8.97	-0.17	-0.01	-0.68	-12.23	-7.21	6.06	
3.25	2.05	-8.95	-0.14	-0.01	-0.55	-12.23	-7.22	6.06	
3.23	2.04	-8.94	-0.11	-0.00	-0.47	-12.23	-7.22	6.06	
3.22	2.04	-8.93	-0.10	-0.00	-0.41	-12.23	-7.22	6.06	
3.20	2.06	-8.96	-0.04	0.01	-0.13	-12.23	-7.22	6.06	
3.18	2.08	-8.97	0.00	0.02	0.05	-12.23	-7.22	6.05	
3.17	2.09	-8.98	0.03	0.02	0.16	-12.23	-7.22	6.05	
3.17	2.10	-8.99	0.04	0.03	0.24	-12.23	-7.22	6.05	
3.01	2.10	-8.96	0.15	0.05	0.70	-12.23	-7.22	6.05	
2.90	2.10	-8.93	0.22	0.07	1.00	-12.23	-7.22	6.05	
2.83	2.11	-8.92	0.27	0.08	1.20	-12.23	-7.22	6.05	
3.10	1.88	-8.96	0.44	0.08	1.93	-12.04	-7.00	5.73	
3.28	1.73	-8.99	0.55	0.09	2.41	-11.92	-6.86	5.52	
3.39	1.63	-9.01	0.63	0.09	2.72	-11.84	-6.76	5.38	
3.47	1.57	-9.02	0.68	0.09	2.93	-11.79	-6.70	5.29	
3.53	1.21	-9.00	0.80	0.06	0.38	-11.76	-6.66	5.24	
3.57	0.98	-8.99	0.89	0.04	-1.28	-11.73	-6.64	5.20	
3.60	0.83	-8.98	0.94	0.03	-2.35	-11.72	-6.62	5.17	
3.62	0.73	-8.97	0.97	0.02	-3.05	-11.71	-6.61	5.16	
3.78	0.51	-9.01	1.03	-0.00	-3.51	-11.70	-6.60	5.15	
3.88	0.37	-9.03	1.07	-0.02	-3.81	-11.70	-6.60	5.14	
3.95	0.27	-9.05	1.09	-0.02	-4.00	-11.70	-6.60	5.14	
3.99	0.13	-8.99	1.08	-0.04	-4.12	-11.70	-6.59	5.13	
4.02	0.04	-8.95	1.07	-0.06	-4.20	-11.70	-6.59	5.13	
4.04	-0.02	-8.93	1.06	-0.07	-4.26	-11.69	-6.59	5.13	
4.05	-0.06	-8.91	1.06	-0.07	-4.29	-11.69	-6.59	5.13	
4.10	-0.12	-8.96	1.03	-0.08	-4.31	-11.69	-6.59	5.13	
4.14	-0.15	-8.99	1.02	-0.08	-4.33	-11.69	-6.59	5.13	
4.16	-0.17	-9.01	1.01	-0.08	-4.34	-11.69	-6.59	5.13	
4.05	-0.55	-9.07	0.97	-0.07	-4.34	-11.69	-6.59	5.13	
3.98	-0.80	-9.12	0.95	-0.06	-4.35	-11.69	-6.59	5.13	
3.93	-0.96	-9.15	0.93	-0.06	-4.35	-11.69	-6.59	5.13	
3.90	-1.07	-9.17	0.92	-0.05	-4.35	-11.69	-6.59	5.13	
3.81	-1.15	-9.14	0.81	-0.06	-1.33	-11.38	-1.50	5.24	
3.75	-1.21	-9.13	0.74	-0.06	0.63	-11.18	1.81	5.31	
3.72	-1.24	-9.12	0.70	-0.06	1.91	-11.05	3.96	5.35	
3.69	-1.26	-9.11	0.66	-0.06	2.74	-10.96	5.36	5.38	
3.57	-1.49	-9.14	0.58	-0.07	2.99	-10.91	6.27	5.40	
3.49	-1.63	-9.15	0.53	-0.07	3.15	-10.87	6.86	5.41	
3.44	-1.72	-9.16	0.49	-0.07	3.25	-10.85	7.24	5.42	
3.37	-1.80	-9.17	0.39	-0.07	3.08	-10.83	7.49	5.43	
3.32	-1.86	-9.18	0.33	-0.07	2.96	-10.82	7.65	5.43	
3.29	-1.89	-9.18	0.28	-0.07	2.88	-10.82	7.76	5.43	
3.27	-1.91	-9.19	0.26	-0.07	2.84	-10.81	7.83	5.43	
3.26	-1.97	-9.16	0.21	-0.08	2.56	-10.81	7.87	5.44	
3.25	-2.01	-9.15	0.18	-0.08	2.39	-10.81	7.90	5.44	
3.24	-2.03	-9.14	0.16	-0.08	2.27	-10.81	7.92	5.44	
3.24	-2.05	-9.13	0.15	-0.08	2.20	-10.81	7.93	5.44	
3.18	-2.15	-9.08	0.15	-0.09	2.03	-10.81	7.94	5.44	
3.14	-2.21	-9.05	0.15	-0.10	1.92	-10.81	7.94	5.44	
3.11	-2.25	-9.03	0.14	-0.10	1.85	-10.80	7.95	5.44	
3.03	-2.37	-8.98	0.17	-0.10	1.90	-10.80	7.95	5.44	
2.99	-2.44	-8.94	0.19	-0.10	1.92	-10.80	7.95	5.44	
2.95	-2.49	-8.92	0.20	-0.10	1.94	-10.80	7.95	5.44	
2.93	-2.52	-8.91	0.20	-0.10	1.95	-10.80	7.95	5.44	
2.90	-2.54	-8.97	0.19	-0.08	2.06	-8.81	10.43	3.71	
2.88	-2.56	-9.01	0.19	-0.07	2.12	-7.52	12.04	2.59	
2.87	-2.57	-9.03	0.18	-0.06	2.17	-6.68	13.09	1.86	
2.80	-2.69	-9.03	0.15	-0.07	2.17	-6.13	13.77	1.38	
2.75	-2.76	-9.02	0.12	-0.08	2.18	-5.78	14.21	1.07	
2.72	-2.81	-9.02	0.11	-0.08	2.18	-5.54	14.50	0.87	
2.70	-2.85	-9.02	0.10	-0.08	2.18	-5.39	14.69	0.74	
2.63	-2.89	-9.01	0.05	-0.06	2.20	-5.30	14.81	0.66	
2.58	-2.92	-9.00	0.02	-0.05	2.22	-5.23	14.89	0.60	
2.54	-2.93	-9.00	-0.00	-0.04	2.23	-5.19	14.94	0.57	
2.52	-2.95	-9.00	-0.01	-0.03	2.23	-5.17	14.97	0.55	
2.44	-3.03	-9.06	-0.04	-0.00	2.31	-5.15	14.99	0.53	
2.39	-3.08	-9.10	-0.05	0.01	2.37	-5.14	15.01	0.52	
2.35	-3.12	-9.13	-0.06	0.03	2.40	-5.13	15.02	0.51	
2.36	-3.15	-9.12	-0.08	0.07	2.55	-5.12	15.02	0.51	
2.37	-3.18	-9.12	-0.09	0.10	2.65	-5.12	15.03	0.51	
2.37	-3.19	-9.12	-0.10	0.12	2.71	-5.12	15.03	0.51	
2.38	-3.20	-9.12	-0.11	0.13	2.75	-5.12	15.03	0.50	
2.28	-3.15	-9.13	-0.12	0.10	2.81	-5.12	15.03	0.50	
2.22	-3.12	-9.13	-0.12	0.08	2.86	-5.12	15.03	0.50	
2.18	-3.10	-9.13	-0.12	0.07	2.88	-5.12	15.03	0.50	
2.15	-3.09	-9.14	-0.13	0.06	2.90	-5.12	15.03	0.50	
2.16	-2.53	-9.00	-0.13	0.07	2.81	-1.51	16.27	0.93	
2.17	-2.16	-8.91	-0.13	0.07	2.75	0.84	17.08	1.21	
2.18	-1.93	-8.86	-0.13	0.07	2.71	2.36	17.60	1.40	
2.01	-2.30	-8.89	-0.02	0.08	2.25	3.35	17.94	1.52	
1.91	-2.55	-8.91	0.04	0.09	1.96	4.00	18.16	1.59	
1.84	-2.71	-8.92	0.09	0.09	1.77	4.42	18.31	1.64	
1.79	-2.81	-8.93	0.12	0.09	1.64	4.69	18.40	1.68	
1.82	-2.99	-8.94	0.17	0.07	1.39	4.87	18.46	1.70	
1.84	-3.10	-8.95	0.21	0.06	1.23	4.98	18.50	1.71	
1.85	-3.18	-8.96	0.23	0.05	1.12	5.06	18.53	1.72	
1.77	-3.18	-8.93	0.28	0.02	1.06	5.10	18.54	1.73	
1.71	-3.18	-8.91	0.31	-0.01	1.01	5.14	18.55	1.73	
1.67	-3.18	-8.90	0.34	-0.02	0.98	5.16	18.56	1.73	
1.65	-3.18	-8.89	0.35	-0.03	0.97	5.17	18.57	1.73	
1.58	-2.18	-8.54	0.29	-0.08	1.20	5.18	18.57	1.73	
1.54	-1.53	-8.31	0.25	-0.11	1.35	5.18	18.57	1.73	
1.51	-1.11	-8.16	0.22	-0.13	1.45	5.19	18.57	1.74	
1.49	-0.84	-8.07	0.20	-0.14	1.52	5.19	18.57	1.74	
1.44	-1.93	-8.41	0.20	-0.08	1.38	5.19	18.57	1.74	
1.40	-2.64	-8.63	0.20	-0.04	1.29	5.19	18.57	1.74	
1.38	-3.10	-8.77	0.20	-0.01	1.23	5.19	18.57	1.74	
1.34	-3.54	-8.94	0.14	0.02	1.06	5.19	18.57	1.74	
1.31	-3.83	-9.04	0.11	0.04	0.95	5.19	18.57	1.74	
1.30	-4.01	-9.11	0.08	0.05	0.88	5.19	18.57	1.74	
1.29	-4.13	-9.16	0.07	0.06	0.83	5.19	18.57	1.74	
1.25	-4.23	-9.20	0.03	0.02	0.85	6.38	19.15	2.28	
1.23	-4.29	-9.22	0.00	-0.00	0.87	7.15	19.52	2.63	
1.21	-4.33	-9.24	-0.01	-0.02	0.88	7.65	19.77	2.85	
1.20	-4.36	-9.25	-0.02	-0.03	0.89	7.97	19.93	3.00	
1.09	-3.79	-9.12	-0.06	-0.09	0.96	8.18	20.03	3.10	
1.02	-3.43	-9.03	-0.09	-0.13	1.01	8.32	20.09	3.16	
0.97	-3.19	-8.98	-0.11	-0.15	1.04	8.41	20.14	3.20	
0.97	-3.30	-9.01	-0.07	-0.13	0.76	8.47	20.17	3.23	
0.97	-3.37	-9.03	-0.04	-0.11	0.58	8.50	20.18	3.25	
0.97	-3.42	-9.04	-0.03	-0.10	0.46	8.53	20.20	3.26	
0.97	-3.45	-9.04	-0.02	-0.09	0.38	8.54	20.20	3.26	
0.92	-4.03	-9.12	-0.01	-0.10	0.35	8.55	20.21	3.27	
0.89	-4.41	-9.17	-0.01	-0.11	0.33	8.56	20.21	3.27	
0.87	-4.65	-9.20	-0.00	-0.11	0.32	8.56	20.21	3.27	
0.86	-4.81	-9.22	-0.00	-0.12	0.31	8.57	20.22	3.28	
0.94	-4.57	-9.11	-0.01	-0.13	0.51	8.57	20.22	3.28	
1.00	-4.42	-9.03	-0.01	-0.13	0.63	8.57	20.22	3.28	
1.04	-4.31	-8.98	-0.01	-0.14	0.71	8.57	20.22	3.28	
1.00	-4.01	-8.92	0.03	-0.10	0.71	8.57	20.22	3.28	
0.98	-3.81	-8.88	0.06	-0.08	0.70	8.57	20.22	3.28	
0.97	-3.68	-8.86	0.07	-0.07	0.70	8.57	20.22	3.28	
0.96	-3.60	-8.84	0.09	-0.06	0.70	8.57	20.22	3.28	
0.90	-3.54	-8.88	0.10	-0.05	0.62	9.94	20.66	1.55	
0.86	-3.50	-8.91	0.12	-0.05	0.56	10.83	20.95	0.43	
0.84	-3.48	-8.92	0.13	-0.05	0.53	11.41	21.14	-0.30	
0.80	-3.52	-8.97	0.11	-0.04	0.43	11.79	21.26	-0.78	
0.77	-3.55	-9.00	0.10	-0.03	0.37	12.03	21.34	-1.08	
0.75	-3.56	-9.02	0.10	-0.03	0.33	12.19	21.39	-1.28	
0.74	-3.57	-9.03	0.09	-0.03	0.30	12.29	21.42	-1.42	
0.75	-3.59	-9.03	0.05	-0.01	0.20	12.36	21.44	-1.50	
0.75	-3.59	-9.03	0.03	-0.00	0.14	12.40	21.46	-1.55	
0.76	-3.60	-9.03	0.01	0.00	0.09	12.43	21.47	-1.59	
0.76	-3.60	-9.03	-0.00	0.01	0.07	12.45	21.47	-1.61	
0.86	-3.48	-8.99	-0.04	0.04	-0.05	12.46	21.48	-1.63	
0.92	-3.40	-8.96	-0.07	0.07	-0.13	12.47	21.48	-1.64	
0.96	-3.35	-8.94	-0.09	0.09	-0.18	12.47	21.48	-1.65	
0.97	-3.17	-8.95	-0.17	0.16	-0.45	12.48	21.48	-1.65	
0.98	-3.05	-8.95	-0.23	0.20	-0.63	12.48	21.48	-1.65	
0.99	-2.97	-8.95	-0.26	0.23	-0.74	12.48	21.48	-1.65	
0.99	-2.92	-8.96	-0.29	0.25	-0.82	12.48	21.48	-1.66	
1.24	-2.15	-8.84	-0.35	0.36	-1.51	12.48	21.48	-1.66	
1.40	-1.65	-8.76	-0.40	0.43	-1.95	12.48	21.48	-1.66	
1.50	-1.32	-8.71	-0.43	0.48	-2.24	12.48	21.48	-1.66	
1.93	-1.88	-8.86	-0.43	0.68	-2.98	9.68	20.91	0.39	
2.21	-2.24	-8.96	-0.43	0.81	-3.46	7.86	20.53	1.73	
2.39	-2.48	-9.02	-0.43	0.89	-3.77	6.68	20.29	2.59	
2.51	-2.63	-9.06	-0.43	0.95	-3.98	5.91	20.13	3.16	
2.54	-3.26	-9.09	-0.39	0.84	-4.11	5.41	20.03	3.52	
2.56	-3.66	-9.10	-0.37	0.77	-4.19	5.09	19.96	3.76	
2.57	-3.92	-9.11	-0.36	0.72	-4.25	4.88	19.92	3.92	
2.57	-4.09	-9.12	-0.35	0.69	-4.29	4.74	19.89	4.02	
2.74	-3.65	-9.08	-0.28	0.54	-4.31	4.65	19.87	4.08	
2.85	-3.36	-9.06	-0.24	0.44	-4.33	4.59	19.86	4.12	
2.92	-3.17	-9.04	-0.21	0.38	-4.34	4.55	19.85	4.15	
2.97	-2.99	-9.05	-0.07	0.25	-4.13	4.53	19.85	4.17	
3.00	-2.87	-9.05	0.02	0.17	-4.00	4.51	19.85	4.18	
3.03	-2.80	-9.05	0.08	0.12	-3.92	4.50	19.84	4.19	
3.04	-2.75	-9.05	0.12	0.09	-3.86	4.50	19.84	4.19	
3.11	-2.73	-9.09	0.19	0.02	-3.65	4.49	19.84	4.20	
3.16	-2.73	-9.11	0.23	-0.02	-3.52	4.49	19.84	4.20	
3.19	-2.72	-9.13	0.26	-0.04	-3.43	4.49	19.84	4.20	
3.21	-2.72	-9.14	0.28	-0.06	-3.37	4.49	19.84	4.20	
3.19	-2.64	-9.15	0.27	-0.14	-3.21	4.49	19.84	4.20	
3.18	-2.59	-9.16	0.27	-0.19	-3.11	4.49	19.84	4.20	
3.17	-2.56	-9.16	0.26	-0.23	-3.04	4.48	19.84	4.20	
3.20	-2.45	-9.14	0.21	-0.27	-3.06	4.48	19.84	4.20	
3.21	-2.37	-9.12	0.17	-0.30	-3.07	4.48	19.84	4.20	
3.22	-2.33	-9.11	0.15	-0.32	-3.08	4.48	19.84	4.20	
3.23	-2.29	-9.10	0.13	-0.34	-3.09	4.48	19.84	4.20	
3.09	-2.53	-9.20	0.10	-0.30	-3.22	0.00	17.27	3.99	
2.99	-2.68	-9.26	0.08	-0.28	-3.30	-2.91	15.60	3.85	
2.93	-2.77	-9.30	0.07	-0.26	-3.36	-4.80	14.52	3.76	
3.20	-2.30	-9.08	0.07	-0.22	-3.37	-6.03	13.81	3.70	
3.38	-2.00	-8.93	0.07	-0.19	-3.38	-6.83	13.36	3.66	
3.49	-1.80	-8.84	0.07	-0.17	-3.39	-7.35	13.06	3.63	
3.57	-1.67	-8.78	0.07	-0.16	-3.39	-7.69	12.86	3.62	
3.72	-1.42	-8.83	0.15	-0.13	-3.33	-7.91	12.74	3.61	
3.81	-1.25	-8.86	0.20	-0.11	-3.30	-8.05	12.66	3.60	
3.87	-1.15	-8.88	0.24	-0.10	-3.27	-8.14	12.60	3.60	
3.92	-1.08	-8.89	0.26	-0.09	-3.26	-8.20	12.57	3.59	
3.94	-1.10	-8.94	0.30	-0.07	-3.46	-8.24	12.55	3.59	
3.96	-1.12	-8.97	0.33	-0.06	-3.58	-8.27	12.53	3.59	
3.98	-1.13	-8.99	0.35	-0.05	-3.67	-8.28	12.52	3.59	
3.77	-1.69	-9.13	0.32	-0.04	-3.91	-8.30	12.52	3.59	
3.63	-2.06	-9.22	0.29	-0.03	-4.06	-8.30	12.51	3.59	
3.54	-2.30	-9.28	0.28	-0.03	-4.17	-8.31	12.51	3.59	
3.48	-2.46	-9.31	0.27	-0.03	-4.23	-8.31	12.51	3.59	
3.67	-1.86	-9.21	-0.02	0.04	-4.27	-8.31	12.51	3.59	
3.78	-1.47	-9.14	-0.20	0.08	-4.30	-8.31	12.51	3.59	
3.86	-1.22	-9.10	-0.32	0.11	-4.32	-8.31	12.51	3.59	
3.80	-1.04	-9.19	-0.45	0.08	-4.11	-10.43	8.35	3.80	
3.76	-0.92	-9.25	-0.54	0.06	-3.97	-11.81	5.64	3.94	
3.74	-0.84	-9.29	-0.59	0.05	-3.88	-12.70	3.88	4.03	
3.72	-0.79	-9.32	-0.63	0.04	-3.82	-13.28	2.74	4.09	
3.81	-0.32	-9.19	-0.68	0.00	-3.33	-13.66	2.00	4.13	
3.87	-0.01	-9.11	-0.71	-0.02	-3.01	-13.90	1.51	4.16	
3.90	0.19	-9.06	-0.73	-0.04	-2.80	-14.06	1.20	4.17	
3.92	0.32	-9.03	-0.74	-0.05	-2.66	-14.17	1.00	4.18	
3.99	0.46	-8.99	-0.67	-0.04	-2.38	-14.23	0.86	4.19	
4.04	0.54	-8.96	-0.62	-0.04	-2.20	-14.28	0.78	4.20	
4.07	0.60	-8.94	-0.59	-0.03	-2.08	-14.31	0.72	4.20	
3.98	0.59	-9.01	-0.56	-0.01	-2.18	-14.33	0.69	4.20	
3.92	0.58	-9.05	-0.54	0.01	-2.24	-14.34	0.66	4.20	
3.88	0.58	-9.08	-0.53	0.02	-2.29	-14.35	0.65	4.20	
3.85	0.58	-9.09	-0.52	0.02	-2.31	-14.35	0.64	4.20	
3.79	0.76	-9.02	-0.48	0.00	-2.16	-14.35	0.63	4.20	
3.75	0.89	-8.98	-0.46	-0.01	-2.06	-14.36	0.63	4.20	
3.73	0.97	-8.94	-0.45	-0.02	-2.00	-14.36	0.62	4.20	
3.71	1.02	-8.93	-0.44	-0.03	-1.96	-14.36	0.62	4.20	
3.71	1.11	-8.92	-0.39	-0.03	-1.61	-14.36	0.62	4.20	
3.71	1.17	-8.91	-0.36	-0.03	-1.39	-14.36	0.62	4.20	
3.71	1.21	-8.91	-0.34	-0.03	-1.24	-14.36	0.62	4.20	
3.67	1.22	-8.91	-0.27	-0.03	-0.89	-14.11	-1.42	3.34	
3.65	1.23	-8.92	-0.22	-0.02	-0.66	-13.95	-2.74	2.78	
3.64	1.24	-8.92	-0.19	-0.02	-0.51	-13.84	-3.60	2.41	
3.63	1.24	-8.92	-0.17	-0.02	-0.41	-13.78	-4.16	2.18	
3.52	1.04	-8.92	-0.05	-0.03	0.02	-13.73	-4.52	2.02	
3.45	0.90	-8.92	0.02	-0.04	0.30	-13.70	-4.76	1.92	
3.40	0.82	-8.92	0.07	-0.04	0.48	-13.68	-4.91	1.86	
3.52	0.82	-8.91	0.22	-0.08	1.11	-13.67	-5.01	1.81	
3.60	0.81	-8.90	0.32	-0.10	1.52	-13.66	-5.08	1.79	
3.65	0.81	-8.89	0.38	-0.12	1.79	-13.66	-5.12	1.77	
3.68	0.81	-8.88	0.42	-0.13	1.97	-13.66	-5.15	1.76	
3.72	0.56	-8.93	0.48	-0.10	2.27	-13.65	-5.17	1.75	
3.75	0.40	-8.97	0.52	-0.08	2.47	-13.65	-5.18	1.75	
3.76	0.29	-8.99	0.54	-0.07	2.60	-13.65	-5.19	1.74	
3.77	0.22	-9.00	0.56	-0.06	2.68	-13.65	-5.19	1.74	
3.85	0.10	-9.03	0.56	-0.06	2.91	-13.65	-5.19	1.74	
3.90	0.02	-9.04	0.56	-0.06	3.06	-13.65	-5.20	1.74	
3.94	-0.03	-9.05	0.56	-0.06	3.15	-13.65	-5.20	1.74	
3.98	-0.17	-9.01	0.56	-0.08	3.36	-13.65	-5.20	1.74	
4.00	-0.26	-8.98	0.55	-0.09	3.50	-13.65	-5.20	1.74	
4.02	-0.32	-8.96	0.55	-0.09	3.59	-13.65	-5.20	1.74	
4.03	-0.36	-8.95	0.55	-0.10	3.65	-13.65	-5.20	1.74	
3.98	-0.47	-8.97	0.56	-0.09	3.80	-13.40	-2.28	2.82	
3.94	-0.55	-8.99	0.56	-0.09	3.91	-13.24	-0.38	3.52	
3.92	-0.60	-9.00	0.56	-0.08	3.97	-13.13	0.86	3.97	
3.91	-0.63	-9.01	0.57	-0.08	4.02	-13.06	1.66	4.27	
3.94	-0.73	-8.98	0.59	-0.08	4.14	-13.02	2.18	4.46	
3.96	-0.79	-8.97	0.61	-0.08	4.22	-12.99	2.52	4.59	
3.97	-0.83	-8.96	0.62	-0.08	4.27	-12.97	2.74	4.67	
3.74	-1.24	-9.01	0.65	-0.08	4.19	-12.96	2.88	4.72	
3.60	-1.50	-9.05	0.67	-0.08	4.13	-12.95	2.97	4.76	
3.50	-1.67	-9.07	0.69	-0.08	4.09	-12.95	3.03	4.78	
3.44	-1.78	-9.08	0.70	-0.08	4.07	-12.94	3.07	4.79	
3.46	-1.86	-9.13	0.67	-0.06	4.05	-12.94	3.10	4.80	
3.47	-1.92	-9.15	0.65	-0.06	4.03	-12.94	3.12	4.81	
3.48	-1.95	-9.17	0.64	-0.05	4.02	-12.94	3.13	4.81	
3.44	-2.06	-9.14	0.58	-0.04	3.93	-12.94	3.13	4.82	
3.42	-2.13	-9.11	0.55	-0.03	3.87	-12.94	3.14	4.82	
3.41	-2.18	-9.10	0.52	-0.03	3.83	-12.94	3.14	4.82	
3.40	-2.21	-9.09	0.51	-0.03	3.80	-12.94	3.14	4.82	
3.43	-2.29	-9.03	0.43	-0.02	3.67	-12.94	3.14	4.82	
3.46	-2.34	-8.99	0.39	-0.01	3.58	-12.94	3.15	4.82	
3.47	-2.37	-8.96	0.36	-0.01	3.52	-12.94	3.15	4.82	
3.48	-2.39	-8.94	0.34	-0.01	3.49	-12.94	3.15	4.82	
3.29	-2.42	-8.93	0.29	-0.04	3.45	-12.94	3.15	4.82	
3.16	-2.44	-8.92	0.26	-0.07	3.43	-12.94	3.15	4.82	
3.08	-2.46	-8.91	0.25	-0.08	3.42	-12.94	3.15	4.82	
2.96	-2.60	-8.93	0.21	-0.08	3.30	-10.51	7.09	2.99	
2.89	-2.69	-8.94	0.19	-0.08	3.23	-8.93	9.65	1.79	
2.84	-2.75	-8.95	0.18	-0.08	3.18	-7.91	11.31	1.02	
2.80	-2.79	-8.95	0.17	-0.08	3.15	-7.24	12.39	0.51	
2.72	-2.84	-8.96	0.14	-0.06	3.08	-6.81	13.10	0.19	
2.67	-2.87	-8.97	0.13	-0.05	3.03	-6.53	13.55	-0.03	
2.64	-2.89	-8.97	0.11	-0.04	3.00	-6.34	13.85	-0.17	
2.62	-2.91	-8.98	0.11	-0.03	2.98	-6.23	14.04	-0.26	
2.59	-3.05	-8.99	0.10	-0.02	2.93	-6.15	14.17	-0.31	
2.56	-3.14	-9.00	0.10	-0.02	2.89	-6.10	14.25	-0.35	
2.55	-3.20	-9.01	0.10	-0.01	2.87	-6.07	14.30	-0.38	
2.40	-3.18	-8.99	0.07	-0.02	2.88	-6.04	14.34	-0.39	
2.31	-3.16	-8.98	0.05	-0.03	2.88	-6.03	14.36	-0.40	
2.25	-3.15	-8.97	0.04	-0.03	2.88	-6.02	14.37	-0.41	
2.21	-3.14	-8.96	0.03	-0.04	2.88	-6.02	14.38	-0.42	
2.06	-3.28	-8.99	-0.01	-0.04	2.76	-6.01	14.39	-0.42	
1.96	-3.37	-9.00	-0.03	-0.04	2.67	-6.01	14.39	-0.42	
1.90	-3.43	-9.01	-0.05	-0.04	2.62	-6.01	14.40	-0.42	
1.91	-3.43	-9.09	-0.09	-0.01	2.59	-6.01	14.40	-0.42	
1.91	-3.43	-9.13	-0.12	0.02	2.57	-6.01	14.40	-0.42	
1.92	-3.43	-9.16	-0.14	0.03	2.56	-6.01	14.40	-0.42	
1.92	-3.43	-9.18	-0.15	0.04	2.55	-6.01	14.40	-0.42	
1.84	-3.52	-9.14	-0.17	0.04	2.56	-2.58	15.86	-0.53	
1.78	-3.58	-9.12	-0.18	0.04	2.56	-0.36	16.81	-0.60	
1.75	-3.62	-9.10	-0.18	0.04	2.57	1.09	17.43	-0.65	
1.73	-3.64	-9.09	-0.19	0.05	2.57	2.03	17.83	-0.68	
1.74	-3.24	-9.00	-0.17	0.04	2.65	2.64	18.09	-0.70	
1.75	-2.97	-8.95	-0.15	0.04	2.71	3.04	18.26	-0.71	
1.76	-2.80	-8.91	-0.14	0.04	2.75	3.29	18.37	-0.72	
1.70	-2.74	-8.83	-0.08	0.02	2.54	3.46	18.44	-0.72	
1.67	-2.70	-8.78	-0.04	0.01	2.41	3.57	18.49	-0.73	
1.65	-2.67	-8.74	-0.01	0.00	2.32	3.64	18.52	-0.73	
1.63	-2.65	-8.72	0.01	-0.00	2.27	3.69	18.54	-0.73	
1.54	-2.92	-8.74	0.08	0.01	1.86	3.72	18.55	-0.73	
1.48	-3.10	-8.75	0.13	0.02	1.60	3.74	18.56	-0.73	
1.44	-3.21	-8.76	0.17	0.03	1.43	3.75	18.56	-0.73	
1.42	-3.29	-8.77	0.19	0.03	1.32	3.76	18.57	-0.73	
1.33	-3.36	-8.83	0.23	0.02	1.11	3.76	18.57	-0.73	
1.27	-3.42	-8.87	0.25	0.01	0.97	3.77	18.57	-0.73	
1.23	-3.45	-8.90	0.26	0.00	0.88	3.77	18.57	-0.73	
1.08	-3.59	-8.96	0.25	-0.01	0.75	3.77	18.57	-0.73	
0.98	-3.69	-9.00	0.25	-0.02	0.67	3.77	18.57	-0.73	
0.92	-3.75	-9.03	0.24	-0.03	0.62	3.77	18.57	-0.73	
0.88	-3.79	-9.04	0.24	-0.03	0.58	3.77	18.57	-0.73	
0.83	-3.74	-9.01	0.17	-0.06	0.60	6.01	19.11	-0.73	
0.79	-3.70	-8.99	0.12	-0.08	0.61	7.47	19.45	-0.73	
0.77	-3.68	-8.98	0.09	-0.09	0.62	8.42	19.68	-0.73	
0.74	-4.44	-9.18	0.07	-0.08	0.57	9.03	19.82	-0.73	
0.72	-4.93	-9.31	0.06	-0.07	0.53	9.43	19.92	-0.73	
0.71	-5.25	-9.40	0.06	-0.07	0.51	9.69	19.98	-0.73	
0.70	-5.46	-9.45	0.05	-0.06	0.50	9.86	20.02	-0.73	
0.71	-4.64	-9.18	0.00	-0.08	0.68	9.97	20.04	-0.73	
0.73	-4.11	-9.01	-0.03	-0.10	0.80	10.04	20.06	-0.73	
0.73	-3.77	-8.89	-0.05	-0.10	0.88	10.09	20.07	-0.73	
0.74	-3.54	-8.82	-0.06	-0.11	0.93	10.12	20.08	-0.73	
0.72	-3.59	-8.87	0.02	-0.07	0.76	10.14	20.08	-0.73	
0.70	-3.62	-8.91	0.07	-0.04	0.64	10.15	20.09	-0.73	
0.70	-3.64	-8.93	0.10	-0.02	0.57	10.16	20.09	-0.73	
0.50	-5.37	-9.22	0.11	-0.06	0.65	10.16	20.09	-0.73	
0.38	-6.49	-9.41	0.12	-0.08	0.70	10.17	20.09	-0.73	
0.30	-7.23	-9.53	0.12	-0.09	0.74	10.17	20.09	-0.73	
0.25	-7.70	-9.61	0.12	-0.10	0.76	10.17	20.09	-0.73	
0.30	-6.05	-9.19	0.04	-0.13	0.98	10.17	20.09	-0.73	
0.34	-4.98	-8.92	-0.02	-0.14	1.12	10.17	20.09	-0.73	
0.37	-4.28	-8.74	-0.05	-0.16	1.21	10.17	20.09	-0.73	
0.34	-4.05	-8.79	-0.03	-0.11	0.87	11.85	20.40	0.02	
0.33	-3.90	-8.82	-0.01	-0.09	0.65	12.94	20.60	0.52	
0.32	-3.80	-8.85	0.00	-0.07	0.51	13.65	20.73	0.83	
0.31	-3.74	-8.86	0.01	-0.06	0.42	14.12	20.82	1.04	
0.32	-3.75	-8.92	-0.00	-0.04	0.30	14.42	20.87	1.18	
0.33	-3.77	-8.96	-0.01	-0.03	0.22	14.61	20.91	1.26	
0.34	-3.77	-8.98	-0.02	-0.02	0.17	14.74	20.93	1.32	
0.34	-3.78	-9.00	-0.02	-0.01	0.14	14.82	20.95	1.36	
0.36	-3.73	-8.99	-0.05	-0.01	0.07	14.87	20.96	1.38	
0.37	-3.70	-8.99	-0.07	-0.00	0.03	14.91	20.97	1.40	
0.37	-3.68	-8.99	-0.08	0.00	-0.00	14.93	20.97	1.41	
0.38	-3.61	-9.00	-0.11	0.03	-0.09	14.95	20.97	1.42	
0.39	-3.57	-9.01	-0.13	0.04	-0.15	14.96	20.97	1.42	
0.39	-3.54	-9.01	-0.14	0.05	-0.19	14.96	20.98	1.42	
0.40	-3.52	-9.02	-0.15	0.06	-0.22	14.97	20.98	1.42	
0.51	-3.24	-8.98	-0.21	0.13	-0.43	14.97	20.98	1.43	
0.59	-3.07	-8.96	-0.25	0.18	-0.57	14.97	20.98	1.43	
0.63	-2.95	-8.95	-0.28	0.21	-0.66	14.97	20.98	1.43	
0.91	-2.32	-8.88	-0.34	0.34	-1.49	14.97	20.98	1.43	
1.09	-1.91	-8.83	-0.39	0.43	-2.03	14.97	20.98	1.43	
1.21	-1.64	-8.80	-0.42	0.49	-2.38	14.97	20.98	1.43	
1.29	-1.47	-8.78	-0.43	0.53	-2.60	14.97	20.98	1.43	
1.78	-2.09	-8.78	-0.44	0.65	-3.22	14.97	20.98	1.43	
2.10	-2.50	-8.78	-0.45	0.74	-3.61	14.97	20.98	1.43	
2.30	-2.76	-8.78	-0.45	0.79	-3.87	14.97	20.98	1.43	
2.25	-3.05	-8.85	-0.46	0.71	-4.04	10.99	20.36	2.51	
2.22	-3.24	-8.90	-0.46	0.66	-4.15	8.40	19.96	3.21	
2.20	-3.36	-8.93	-0.46	0.63	-4.22	6.72	19.69	3.67	
2.18	-3.44	-8.94	-0.47	0.61	-4.27	5.63	19.52	3.96	
2.61	-3.18	-9.01	-0.43	0.56	-4.30	4.92	19.41	4.15	
2.89	-3.02	-9.05	-0.41	0.53	-4.32	4.45	19.34	4.28	
3.08	-2.91	-9.08	-0.39	0.51	-4.33	4.15	19.29	4.36	
3.20	-2.84	-9.09	-0.38	0.49	-4.34	3.96	19.26	4.41	
3.37	-2.90	-9.02	-0.24	0.38	-4.34	3.83	19.24	4.45	
3.49	-2.94	-8.98	-0.15	0.30	-4.35	3.75	19.23	4.47	
3.56	-2.96	-8.95	-0.09	0.26	-4.35	3.69	19.22	4.49	
3.52	-2.77	-8.93	0.04	0.15	-4.35	3.66	19.22	4.49	
3.50	-2.64	-8.91	0.13	0.08	-4.35	3.64	19.21	4.50	
3.48	-2.56	-8.90	0.18	0.04	-4.35	3.62	19.21	4.50	
3.47	-2.51	-8.90	0.22	0.01	-4.35	3.61	19.21	4.51	
3.50	-2.32	-8.96	0.29	-0.01	-4.29	3.61	19.21	4.51	
3.52	-2.20	-9.00	0.33	-0.02	-4.25	3.60	19.21	4.51	
3.53	-2.12	-9.02	0.36	-0.03	-4.22	3.60	19.21	4.51	
3.54	-2.07	-9.04	0.38	-0.04	-4.21	3.60	19.21	4.51	
3.65	-2.03	-9.07	0.37	-0.02	-4.26	3.60	19.21	4.51	
3.72	-2.01	-9.09	0.37	-0.01	-4.29	3.60	19.21	4.51	
3.77	-1.99	-9.10	0.36	-0.00	-4.31	3.60	19.21	4.51	
3.70	-2.34	-9.13	0.33	-0.01	-4.33	-2.13	15.05	4.08	
3.65	-2.57	-9.15	0.32	-0.01	-4.34	-5.85	12.34	3.80	
3.62	-2.72	-9.16	0.31	-0.01	-4.34	-8.27	10.58	3.62	
3.60	-2.81	-9.16	0.30	-0.01	-4.35	-9.84	9.44	3.50	
3.95	-2.14	-9.13	0.03	0.05	-4.17	-10.86	8.70	3.42	
4.18	-1.70	-9.12	-0.14	0.08	-4.06	-11.53	8.22	3.37	
4.32	-1.41	-9.10	-0.25	0.11	-3.98	-11.96	7.90	3.34	
4.24	-1.39	-9.17	-0.37	0.08	-3.73	-12.24	7.70	3.32	
4.19	-1.37	-9.21	-0.45	0.07	-3.57	-12.42	7.57	3.30	
4.16	-1.36	-9.23	-0.51	0.06	-3.46	-12.54	7.48	3.29	
4.13	-1.35	-9.25	-0.54	0.05	-3.39	-12.62	7.42	3.29	
4.16	-0.94	-9.11	-0.66	0.02	-3.25	-12.67	7.39	3.29	
4.17	-0.68	-9.03	-0.74	0.00	-3.16	-12.70	7.36	3.28	
4.18	-0.51	-8.97	-0.79	-0.01	-3.09	-12.72	7.35	3.28	
4.19	-0.40	-8.93	-0.82	-0.02	-3.06	-12.73	7.34	3.28	
4.19	-0.08	-8.87	-0.85	-0.01	-3.15	-12.74	7.33	3.28	
4.18	0.13	-8.83	-0.87	-0.00	-3.22	-12.75	7.33	3.28	
4.18	0.27	-8.80	-0.88	0.00	-3.26	-12.75	7.33	3.28	
4.10	0.46	-8.84	-0.82	0.01	-3.28	-12.76	7.32	3.28	
4.05	0.59	-8.87	-0.78	0.02	-3.29	-12.76	7.32	3.28	
4.02	0.67	-8.89	-0.75	0.02	-3.30	-12.76	7.32	3.28	
4.00	0.72	-8.90	-0.74	0.02	-3.31	-12.76	7.32	3.28	
4.04	0.77	-8.92	-0.68	0.02	-3.17	-12.88	3.43	4.14	
4.07	0.81	-8.93	-0.64	0.02	-3.08	-12.96	0.89	4.70	
4.09	0.83	-8.94	-0.62	0.01	-3.03	-13.02	-0.75	5.07	
4.10	0.84	-8.95	-0.60	0.01	-2.99	-13.05	-1.82	5.31	
4.09	1.00	-8.99	-0.61	0.01	-2.93	-13.07	-2.52	5.46	
4.08	1.11	-9.02	-0.61	0.01	-2.89	-13.09	-2.97	5.56	
4.08	1.17	-9.03	-0.62	0.00	-2.87	-13.10	-3.26	5.63	
3.92	1.33	-9.04	-0.62	-0.03	-2.84	-13.10	-3.45	5.67	
3.82	1.43	-9.05	-0.62	-0.04	-2.83	-13.11	-3.58	5.70	
3.76	1.50	-9.05	-0.62	-0.06	-2.82	-13.11	-3.66	5.71	
3.72	1.55	-9.05	-0.62	-0.06	-2.81	-13.11	-3.71	5.72	
3.71	1.63	-9.01	-0.57	-0.08	-2.65	-13.11	-3.74	5.73	
3.70	1.68	-8.98	-0.54	-0.10	-2.54	-13.11	-3.77	5.74	
3.69	1.72	-8.96	-0.52	-0.11	-2.48	-13.11	-3.78	5.74	
3.58	1.92	-8.88	-0.49	-0.10	-2.31	-13.11	-3.79	5.74	
3.51	2.05	-8.83	-0.47	-0.10	-2.20	-13.12	-3.80	5.74	
3.46	2.13	-8.79	-0.46	-0.10	-2.13	-13.12	-3.80	5.74	
3.43	2.18	-8.77	-0.45	-0.10	-2.08	-13.12	-3.80	5.75	
3.34	2.20	-8.78	-0.40	-0.09	-1.91	-13.12	-3.80	5.75	
3.28	2.22	-8.78	-0.36	-0.09	-1.80	-13.12	-3.81	5.75	
3.25	2.22	-8.78	-0.34	-0.08	-1.73	-13.12	-3.81	5.75	
3.22	2.23	-8.78	-0.33	-0.08	-1.69	-13.12	-3.81	5.75	
3.26	2.24	-8.82	-0.27	-0.07	-1.44	-13.12	-3.81	5.75	
3.28	2.25	-8.84	-0.23	-0.06	-1.27	-13.12	-3.81	5.75	
3.29	2.26	-8.86	-0.21	-0.06	-1.17	-13.12	-3.81	5.75	
3.26	2.28	-8.89	-0.16	-0.04	-0.87	-12.62	-6.64	5.75	
3.24	2.29	-8.91	-0.13	-0.03	-0.68	-12.29	-8.48	5.75	
3.22	2.30	-8.92	-0.10	-0.02	-0.56	-12.08	-9.68	5.75	
3.21	2.30	-8.93	-0.09	-0.02	-0.48	-11.95	-10.46	5.75	
3.35	2.35	-8.90	-0.04	-0.00	-0.18	-11.86	-10.96	5.75	
3.43	2.39	-8.88	-0.01	0.01	0.01	-11.80	-11.29	5.75	
3.49	2.41	-8.87	0.01	0.01	0.13	-11.76	-11.50	5.75	
3.47	2.31	-8.89	0.04	0.02	0.26	-11.74	-11.64	5.75	
3.46	2.25	-8.90	0.06	0.02	0.34	-11.72	-11.73	5.75	
3.45	2.21	-8.91	0.07	0.02	0.40	-11.71	-11.79	5.75	
3.45	2.18	-8.91	0.08	0.03	0.43	-11.71	-11.83	5.75	
3.45	2.16	-8.93	0.10	0.03	0.61	-11.70	-11.86	5.75	
3.45	2.15	-8.94	0.11	0.04	0.72	-11.70	-11.87	5.75	
3.45	2.15	-8.95	0.12	0.04	0.80	-11.70	-11.88	5.75	
3.45	2.14	-8.95	0.12	0.04	0.85	-11.70	-11.89	5.75	
3.48	2.14	-8.88	0.15	0.07	1.12	-11.69	-11.89	5.75	
3.51	2.14	-8.84	0.18	0.08	1.29	-11.69	-11.90	5.75	
3.52	2.14	-8.81	0.19	0.09	1.41	-11.69	-11.90	5.75	
3.41	1.96	-8.83	0.28	0.11	1.82	-11.69	-11.90	5.75	
3.34	1.85	-8.85	0.34	0.13	2.09	-11.69	-11.90	5.75	
3.29	1.77	-8.86	0.37	0.14	2.27	-11.69	-11.90	5.75	
3.26	1.72	-8.87	0.40	0.15	2.38	-11.69	-11.90	5.75	
3.49	1.45	-8.94	0.52	0.11	3.02	-12.32	-10.48	4.67	
3.64	1.27	-8.99	0.60	0.09	3.43	-12.72	-9.56	3.96	
3.74	1.15	-9.03	0.65	0.08	3.70	-12.98	-8.97	3.51	
3.81	1.08	-9.05	0.68	0.07	3.88	-13.15	-8.58	3.21	
3.85	1.03	-8.89	0.75	0.02	1.00	-13.26	-8.32	3.02	
3.88	1.00	-8.79	0.80	-0.01	-0.88	-13.34	-8.16	2.89	
3.90	0.98	-8.72	0.83	-0.03	-2.09	-13.38	-8.05	2.81	
4.14	0.69	-8.83	0.94	-0.07	-2.88	-13.41	-7.98	2.76	
4.30	0.50	-8.90	1.01	-0.10	-3.40	-13.43	-7.94	2.73	
4.41	0.38	-8.94	1.05	-0.12	-3.73	-13.45	-7.91	2.70	
4.48	0.30	-8.97	1.08	-0.13	-3.95	-13.46	-7.89	2.69	
4.53	0.36	-8.94	1.08	-0.14	-4.09	-13.46	-7.88	2.68	
4.56	0.39	-8.91	1.07	-0.14	-4.18	-13.46	-7.87	2.67	
4.59	0.42	-8.90	1.07	-0.14	-4.24	-13.47	-7.86	2.67	
4.24	-0.55	-8.96	1.10	-0.15	-4.28	-13.47	-7.86	2.67	
4.01	-1.19	-9.00	1.11	-0.16	-4.31	-13.47	-7.86	2.66	
3.86	-1.60	-9.03	1.12	-0.16	-4.32	-13.47	-7.86	2.66	
3.77	-1.87	-9.05	1.13	-0.16	-4.33	-13.47	-7.86	2.66	
3.84	-1.83	-9.12	1.00	-0.08	-4.34	-13.47	-7.86	2.66	
3.89	-1.80	-9.17	0.91	-0.02	-4.35	-13.47	-7.86	2.66	
3.92	-1.79	-9.20	0.86	0.01	-4.35	-13.47	-7.86	2.66	
3.94	-1.78	-9.22	0.82	0.04	-4.35	-13.47	-7.86	2.66	
3.79	-2.17	-9.23	0.69	0.08	-4.35	-12.60	-1.39	1.80	
3.70	-2.42	-9.23	0.61	0.11	-4.35	-12.03	2.81	1.24	
3.64	-2.59	-9.24	0.55	0.13	-4.35	-11.67	5.54	0.87	
3.61	-2.62	-9.22	0.38	0.16	-4.35	-11.43	7.31	0.63	
3.60	-2.64	-9.20	0.28	0.19	-4.35	-11.27	8.47	0.48	
3.58	-2.65	-9.19	0.21	0.20	-4.35	-11.17	9.22	0.38	
3.58	-2.66	-9.19	0.16	0.21	-4.35	-11.10	9.70	0.31	
3.43	-2.77	-9.12	0.07	0.21	-4.35	-11.06	10.02	0.27	
3.33	-2.84	-9.07	0.01	0.21	-4.35	-11.03	10.23	0.24	
3.26	-2.89	-9.04	-0.03	0.21	-4.35	-11.02	10.36	0.23	
3.25	-2.86	-8.95	-0.12	0.20	-1.39	-11.00	10.45	0.22	
3.24	-2.83	-8.89	-0.18	0.20	0.53	-11.00	10.50	0.21	
3.24	-2.82	-8.85	-0.22	0.19	1.78	-10.99	10.54	0.20	
3.24	-2.81	-8.83	-0.24	0.19	2.60	-10.99	10.56	0.20	
3.13	-2.93	-8.75	-0.26	0.15	3.11	-10.99	10.58	0.20	
3.05	-3.00	-8.70	-0.27	0.12	3.44	-10.98	10.59	0.20	
3.01	-3.05	-8.66	-0.28	0.10	3.66	-10.98	10.60	0.20	
2.98	-3.08	-8.64	-0.29	0.09	3.80	-10.98	10.60	0.19	
2.81	-3.03	-8.71	-0.30	0.04	3.87	-10.98	10.60	0.19	
2.70	-2.99	-8.76	-0.30	0.01	3.91	-10.98	10.60	0.19	
2.63	-2.97	-8.79	-0.31	-0.01	3.94	-10.98	10.61	0.19	
2.64	-2.60	-8.84	-0.28	0.02	3.66	-6.19	13.57	-0.56	
2.65	-2.36	-8.88	-0.27	0.03	3.48	-3.08	15.50	-1.05	
2.65	-2.21	-8.90	-0.26	0.04	3.36	-1.05	16.75	-1.37	
2.65	-2.10	-8.92	-0.25	0.05	3.29	0.26	17.57	-1.58	
2.55	-2.46	-8.99	-0.12	0.07	2.67	1.12	18.10	-1.72	
2.48	-2.68	-9.04	-0.04	0.08	2.28	1.67	18.44	-1.80	
2.44	-2.83	-9.07	0.02	0.09	2.02	2.04	18.67	-1.86	
2.31	-2.89	-9.02	0.08	0.05	1.70	2.27	18.81	-1.90	
2.22	-2.93	-8.98	0.11	0.03	1.50	2.42	18.91	-1.92	
2.17	-2.95	-8.96	0.14	0.01	1.36	2.52	18.97	-1.94	
2.13	-2.97	-8.95	0.16	0.00	1.27	2.59	19.01	-1.95	
2.03	-3.12	-9.00	0.21	-0.03	1.08	2.63	19.03	-1.95	
1.96	-3.22	-9.03	0.24	-0.04	0.96	2.66	19.05	-1.96	
1.91	-3.28	-9.05	0.26	-0.06	0.88	2.67	19.06	-1.96	
1.88	-3.32	-9.07	0.27	-0.06	0.83	2.68	19.07	-1.96	
1.70	-3.07	-8.68	0.21	-0.18	1.04	2.69	19.07	-1.96	
1.58	-2.90	-8.43	0.17	-0.25	1.18	2.70	19.08	-1.96	
1.51	-2.79	-8.27	0.14	-0.29	1.27	2.70	19.08	-1.96	
1.64	-3.07	-8.48	0.13	-0.27	1.30	2.70	19.08	-1.97	
1.72	-3.24	-8.62	0.13	-0.25	1.31	2.70	19.08	-1.97	
1.78	-3.36	-8.71	0.12	-0.24	1.33	2.70	19.08	-1.97	
1.81	-3.44	-8.77	0.12	-0.23	1.33	2.71	19.08	-1.97	
1.74	-3.47	-8.85	0.11	-0.19	1.05	2.71	19.08	-1.97	
1.70	-3.49	-8.91	0.10	-0.16	0.87	2.71	19.08	-1.97	
1.67	-3.50	-8.94	0.09	-0.14	0.75	2.71	19.08	-1.97	
1.62	-3.49	-8.96	0.07	-0.13	0.59	4.20	19.70	-0.67	
1.59	-3.49	-8.97	0.05	-0.13	0.49	5.17	20.10	0.17	
1.57	-3.48	-8.98	0.04	-0.12	0.43	5.80	20.36	0.72	
1.56	-3.48	-8.98	0.03	-0.12	0.39	6.21	20.54	1.08	
